File,BGbase,Color_change,CorrAns,trials.thisRepN,trials.thisTrialN,trials.thisN,trials.thisIndex,Inst.started,Inst.stopped,key_resp.keys,key_resp.corr,key_resp.rt,participant,session,date,expName,psychopyVersion,frameRate,
images/pbg_bu_4.png,images/pbg_bu_0.png,154.0,down,0,0,0,4,29.94890149999992,None,a,0,10.888750400015851,raghav_b,001,2020_Dec_09_1423,hue_diff,2020.2.10,60.016912765542045,
images/pbg_bu_7.png,images/pbg_bu_0.png,157.0,left,0,1,1,7,,,a,0,2.144935600023018,raghav_b,001,2020_Dec_09_1423,hue_diff,2020.2.10,60.016912765542045,
images/pbg_bu_1.png,images/pbg_bu_0.png,151.0,right,0,2,2,1,,,a,0,1.8991125999891665,raghav_b,001,2020_Dec_09_1423,hue_diff,2020.2.10,60.016912765542045,
images/pbg_bu_14.png,images/pbg_bu_0.png,164.0,up,0,3,3,14,,,up,1,1.5930238000000827,raghav_b,001,2020_Dec_09_1423,hue_diff,2020.2.10,60.016912765542045,
images/pbg_bu_6.png,images/pbg_bu_0.png,156.0,down,0,4,4,6,,,a,0,1.9974667000060435,raghav_b,001,2020_Dec_09_1423,hue_diff,2020.2.10,60.016912765542045,
images/pbg_bu_11.png,images/pbg_bu_0.png,161.0,down,0,5,5,11,,,down,1,1.4667891999997664,raghav_b,001,2020_Dec_09_1423,hue_diff,2020.2.10,60.016912765542045,
images/pbg_bu_3.png,images/pbg_bu_0.png,153.0,right,0,6,6,3,,,a,0,2.118073799996637,raghav_b,001,2020_Dec_09_1423,hue_diff,2020.2.10,60.016912765542045,
images/pbg_bu_2.png,images/pbg_bu_0.png,152.0,right,0,7,7,2,,,a,0,1.94511919998331,raghav_b,001,2020_Dec_09_1423,hue_diff,2020.2.10,60.016912765542045,
images/pbg_bu_13.png,images/pbg_bu_0.png,163.0,left,0,8,8,13,,,left,1,1.1872180000063963,raghav_b,001,2020_Dec_09_1423,hue_diff,2020.2.10,60.016912765542045,
images/pbg_bu_10.png,images/pbg_bu_0.png,160.0,up,0,9,9,10,,,a,0,1.9854510000150185,raghav_b,001,2020_Dec_09_1423,hue_diff,2020.2.10,60.016912765542045,
images/pbg_bu_12.png,images/pbg_bu_0.png,162.0,down,0,10,10,12,,,down,1,1.279784100013785,raghav_b,001,2020_Dec_09_1423,hue_diff,2020.2.10,60.016912765542045,
images/pbg_bu_5.png,images/pbg_bu_0.png,155.0,up,0,11,11,5,,,up,1,1.6385478999873158,raghav_b,001,2020_Dec_09_1423,hue_diff,2020.2.10,60.016912765542045,
images/pbg_bu_9.png,images/pbg_bu_0.png,159.0,down,0,12,12,9,,,down,1,1.6023998000018764,raghav_b,001,2020_Dec_09_1423,hue_diff,2020.2.10,60.016912765542045,
images/pbg_bu_8.png,images/pbg_bu_0.png,158.0,left,0,13,13,8,,,left,1,1.4527866000134964,raghav_b,001,2020_Dec_09_1423,hue_diff,2020.2.10,60.016912765542045,
images/pbg_bu_0.png,images/pbg_bu_0.png,150.0,up,0,14,14,0,,,a,0,1.8532818999956362,raghav_b,001,2020_Dec_09_1423,hue_diff,2020.2.10,60.016912765542045,
images/pbg_bu_9.png,images/pbg_bu_0.png,159.0,down,1,0,15,9,,,down,1,1.49965839998913,raghav_b,001,2020_Dec_09_1423,hue_diff,2020.2.10,60.016912765542045,
images/pbg_bu_10.png,images/pbg_bu_0.png,160.0,up,1,1,16,10,,,up,1,1.4878525999956764,raghav_b,001,2020_Dec_09_1423,hue_diff,2020.2.10,60.016912765542045,
images/pbg_bu_12.png,images/pbg_bu_0.png,162.0,down,1,2,17,12,,,down,1,1.2246723999851383,raghav_b,001,2020_Dec_09_1423,hue_diff,2020.2.10,60.016912765542045,
images/pbg_bu_4.png,images/pbg_bu_0.png,154.0,down,1,3,18,4,,,a,0,1.7485448000079487,raghav_b,001,2020_Dec_09_1423,hue_diff,2020.2.10,60.016912765542045,
images/pbg_bu_11.png,images/pbg_bu_0.png,161.0,down,1,4,19,11,,,down,1,1.4565042000031099,raghav_b,001,2020_Dec_09_1423,hue_diff,2020.2.10,60.016912765542045,
images/pbg_bu_1.png,images/pbg_bu_0.png,151.0,right,1,5,20,1,,,up,0,1.7057170000043698,raghav_b,001,2020_Dec_09_1423,hue_diff,2020.2.10,60.016912765542045,
images/pbg_bu_6.png,images/pbg_bu_0.png,156.0,down,1,6,21,6,,,down,1,1.5301483999937773,raghav_b,001,2020_Dec_09_1423,hue_diff,2020.2.10,60.016912765542045,
images/pbg_bu_14.png,images/pbg_bu_0.png,164.0,up,1,7,22,14,,,up,1,1.5156124000204727,raghav_b,001,2020_Dec_09_1423,hue_diff,2020.2.10,60.016912765542045,
images/pbg_bu_8.png,images/pbg_bu_0.png,158.0,left,1,8,23,8,,,left,1,1.440097099984996,raghav_b,001,2020_Dec_09_1423,hue_diff,2020.2.10,60.016912765542045,
images/pbg_bu_0.png,images/pbg_bu_0.png,150.0,up,1,9,24,0,,,a,0,2.023056899983203,raghav_b,001,2020_Dec_09_1423,hue_diff,2020.2.10,60.016912765542045,
images/pbg_bu_3.png,images/pbg_bu_0.png,153.0,right,1,10,25,3,,,a,0,1.9350546000059694,raghav_b,001,2020_Dec_09_1423,hue_diff,2020.2.10,60.016912765542045,
images/pbg_bu_2.png,images/pbg_bu_0.png,152.0,right,1,11,26,2,,,a,0,2.6298993000236806,raghav_b,001,2020_Dec_09_1423,hue_diff,2020.2.10,60.016912765542045,
images/pbg_bu_5.png,images/pbg_bu_0.png,155.0,up,1,12,27,5,,,up,1,1.5992140999878757,raghav_b,001,2020_Dec_09_1423,hue_diff,2020.2.10,60.016912765542045,
images/pbg_bu_7.png,images/pbg_bu_0.png,157.0,left,1,13,28,7,,,left,1,1.454016000003321,raghav_b,001,2020_Dec_09_1423,hue_diff,2020.2.10,60.016912765542045,
images/pbg_bu_13.png,images/pbg_bu_0.png,163.0,left,1,14,29,13,,,left,1,1.445542600005865,raghav_b,001,2020_Dec_09_1423,hue_diff,2020.2.10,60.016912765542045,
images/pbg_bu_8.png,images/pbg_bu_0.png,158.0,left,2,0,30,8,,,left,1,1.4149554999894463,raghav_b,001,2020_Dec_09_1423,hue_diff,2020.2.10,60.016912765542045,
images/pbg_bu_0.png,images/pbg_bu_0.png,150.0,up,2,1,31,0,,,a,0,1.9561248000245541,raghav_b,001,2020_Dec_09_1423,hue_diff,2020.2.10,60.016912765542045,
images/pbg_bu_1.png,images/pbg_bu_0.png,151.0,right,2,2,32,1,,,a,0,3.5262649999931455,raghav_b,001,2020_Dec_09_1423,hue_diff,2020.2.10,60.016912765542045,
images/pbg_bu_12.png,images/pbg_bu_0.png,162.0,down,2,3,33,12,,,down,1,1.5138183999806643,raghav_b,001,2020_Dec_09_1423,hue_diff,2020.2.10,60.016912765542045,
images/pbg_bu_6.png,images/pbg_bu_0.png,156.0,down,2,4,34,6,,,down,1,1.4601794000191148,raghav_b,001,2020_Dec_09_1423,hue_diff,2020.2.10,60.016912765542045,
images/pbg_bu_10.png,images/pbg_bu_0.png,160.0,up,2,5,35,10,,,up,1,1.427025799988769,raghav_b,001,2020_Dec_09_1423,hue_diff,2020.2.10,60.016912765542045,
images/pbg_bu_3.png,images/pbg_bu_0.png,153.0,right,2,6,36,3,,,a,0,2.140012599993497,raghav_b,001,2020_Dec_09_1423,hue_diff,2020.2.10,60.016912765542045,
images/pbg_bu_5.png,images/pbg_bu_0.png,155.0,up,2,7,37,5,,,up,1,1.5070172999985516,raghav_b,001,2020_Dec_09_1423,hue_diff,2020.2.10,60.016912765542045,
images/pbg_bu_11.png,images/pbg_bu_0.png,161.0,down,2,8,38,11,,,down,1,1.423337200016249,raghav_b,001,2020_Dec_09_1423,hue_diff,2020.2.10,60.016912765542045,
images/pbg_bu_14.png,images/pbg_bu_0.png,164.0,up,2,9,39,14,,,up,1,1.4013052000082098,raghav_b,001,2020_Dec_09_1423,hue_diff,2020.2.10,60.016912765542045,
images/pbg_bu_4.png,images/pbg_bu_0.png,154.0,down,2,10,40,4,,,down,1,1.4813923999899998,raghav_b,001,2020_Dec_09_1423,hue_diff,2020.2.10,60.016912765542045,
images/pbg_bu_7.png,images/pbg_bu_0.png,157.0,left,2,11,41,7,,,left,1,1.4239059000101406,raghav_b,001,2020_Dec_09_1423,hue_diff,2020.2.10,60.016912765542045,
images/pbg_bu_13.png,images/pbg_bu_0.png,163.0,left,2,12,42,13,,,left,1,1.4313882999995258,raghav_b,001,2020_Dec_09_1423,hue_diff,2020.2.10,60.016912765542045,
images/pbg_bu_2.png,images/pbg_bu_0.png,152.0,right,2,13,43,2,,,a,0,1.6733191999956034,raghav_b,001,2020_Dec_09_1423,hue_diff,2020.2.10,60.016912765542045,
images/pbg_bu_9.png,images/pbg_bu_0.png,159.0,down,2,14,44,9,,,down,1,1.4586804999853484,raghav_b,001,2020_Dec_09_1423,hue_diff,2020.2.10,60.016912765542045,
images/pbg_bu_14.png,images/pbg_bu_0.png,164.0,up,3,0,45,14,,,up,1,1.4336857000016607,raghav_b,001,2020_Dec_09_1423,hue_diff,2020.2.10,60.016912765542045,
images/pbg_bu_7.png,images/pbg_bu_0.png,157.0,left,3,1,46,7,,,left,1,1.4883042000001296,raghav_b,001,2020_Dec_09_1423,hue_diff,2020.2.10,60.016912765542045,
images/pbg_bu_0.png,images/pbg_bu_0.png,150.0,up,3,2,47,0,,,a,0,1.6243556999834254,raghav_b,001,2020_Dec_09_1423,hue_diff,2020.2.10,60.016912765542045,
images/pbg_bu_13.png,images/pbg_bu_0.png,163.0,left,3,3,48,13,,,left,1,1.0617803999921307,raghav_b,001,2020_Dec_09_1423,hue_diff,2020.2.10,60.016912765542045,
images/pbg_bu_11.png,images/pbg_bu_0.png,161.0,down,3,4,49,11,,,down,1,1.1291007999971043,raghav_b,001,2020_Dec_09_1423,hue_diff,2020.2.10,60.016912765542045,
images/pbg_bu_12.png,images/pbg_bu_0.png,162.0,down,3,5,50,12,,,down,1,1.0283324999909382,raghav_b,001,2020_Dec_09_1423,hue_diff,2020.2.10,60.016912765542045,
images/pbg_bu_5.png,images/pbg_bu_0.png,155.0,up,3,6,51,5,,,up,1,1.1857365000178106,raghav_b,001,2020_Dec_09_1423,hue_diff,2020.2.10,60.016912765542045,
images/pbg_bu_6.png,images/pbg_bu_0.png,156.0,down,3,7,52,6,,,down,1,1.120628000004217,raghav_b,001,2020_Dec_09_1423,hue_diff,2020.2.10,60.016912765542045,
images/pbg_bu_1.png,images/pbg_bu_0.png,151.0,right,3,8,53,1,,,a,0,1.9243494999827817,raghav_b,001,2020_Dec_09_1423,hue_diff,2020.2.10,60.016912765542045,
images/pbg_bu_8.png,images/pbg_bu_0.png,158.0,left,3,9,54,8,,,left,1,1.3385903000016697,raghav_b,001,2020_Dec_09_1423,hue_diff,2020.2.10,60.016912765542045,
images/pbg_bu_2.png,images/pbg_bu_0.png,152.0,right,3,10,55,2,,,a,0,1.8732191000017338,raghav_b,001,2020_Dec_09_1423,hue_diff,2020.2.10,60.016912765542045,
images/pbg_bu_4.png,images/pbg_bu_0.png,154.0,down,3,11,56,4,,,a,0,2.0120420000166632,raghav_b,001,2020_Dec_09_1423,hue_diff,2020.2.10,60.016912765542045,
images/pbg_bu_9.png,images/pbg_bu_0.png,159.0,down,3,12,57,9,,,down,1,1.4392449000151828,raghav_b,001,2020_Dec_09_1423,hue_diff,2020.2.10,60.016912765542045,
images/pbg_bu_3.png,images/pbg_bu_0.png,153.0,right,3,13,58,3,,,a,0,1.7557356000179425,raghav_b,001,2020_Dec_09_1423,hue_diff,2020.2.10,60.016912765542045,
images/pbg_bu_10.png,images/pbg_bu_0.png,160.0,up,3,14,59,10,,,up,1,1.4901944000157528,raghav_b,001,2020_Dec_09_1423,hue_diff,2020.2.10,60.016912765542045,
images/pbg_bu_13.png,images/pbg_bu_0.png,163.0,left,4,0,60,13,,,left,1,1.4040655000135303,raghav_b,001,2020_Dec_09_1423,hue_diff,2020.2.10,60.016912765542045,
images/pbg_bu_14.png,images/pbg_bu_0.png,164.0,up,4,1,61,14,,,up,1,1.4067807999963406,raghav_b,001,2020_Dec_09_1423,hue_diff,2020.2.10,60.016912765542045,
images/pbg_bu_0.png,images/pbg_bu_0.png,150.0,up,4,2,62,0,,,a,0,1.8128797999816015,raghav_b,001,2020_Dec_09_1423,hue_diff,2020.2.10,60.016912765542045,
images/pbg_bu_10.png,images/pbg_bu_0.png,160.0,up,4,3,63,10,,,up,1,1.4436683999956585,raghav_b,001,2020_Dec_09_1423,hue_diff,2020.2.10,60.016912765542045,
images/pbg_bu_7.png,images/pbg_bu_0.png,157.0,left,4,4,64,7,,,left,1,1.4909933999879286,raghav_b,001,2020_Dec_09_1423,hue_diff,2020.2.10,60.016912765542045,
images/pbg_bu_5.png,images/pbg_bu_0.png,155.0,up,4,5,65,5,,,up,1,1.4598847000161186,raghav_b,001,2020_Dec_09_1423,hue_diff,2020.2.10,60.016912765542045,
images/pbg_bu_8.png,images/pbg_bu_0.png,158.0,left,4,6,66,8,,,left,1,1.4757564999745227,raghav_b,001,2020_Dec_09_1423,hue_diff,2020.2.10,60.016912765542045,
images/pbg_bu_11.png,images/pbg_bu_0.png,161.0,down,4,7,67,11,,,down,1,1.4658804000064265,raghav_b,001,2020_Dec_09_1423,hue_diff,2020.2.10,60.016912765542045,
images/pbg_bu_12.png,images/pbg_bu_0.png,162.0,down,4,8,68,12,,,down,1,1.422148699988611,raghav_b,001,2020_Dec_09_1423,hue_diff,2020.2.10,60.016912765542045,
images/pbg_bu_4.png,images/pbg_bu_0.png,154.0,down,4,9,69,4,,,down,1,1.4064227999770083,raghav_b,001,2020_Dec_09_1423,hue_diff,2020.2.10,60.016912765542045,
images/pbg_bu_1.png,images/pbg_bu_0.png,151.0,right,4,10,70,1,,,a,0,1.4829364999895915,raghav_b,001,2020_Dec_09_1423,hue_diff,2020.2.10,60.016912765542045,
images/pbg_bu_3.png,images/pbg_bu_0.png,153.0,right,4,11,71,3,,,right,1,1.4557453999877907,raghav_b,001,2020_Dec_09_1423,hue_diff,2020.2.10,60.016912765542045,
images/pbg_bu_9.png,images/pbg_bu_0.png,159.0,down,4,12,72,9,,,down,1,1.3012901000038255,raghav_b,001,2020_Dec_09_1423,hue_diff,2020.2.10,60.016912765542045,
images/pbg_bu_6.png,images/pbg_bu_0.png,156.0,down,4,13,73,6,,,down,1,1.419135100004496,raghav_b,001,2020_Dec_09_1423,hue_diff,2020.2.10,60.016912765542045,
images/pbg_bu_2.png,images/pbg_bu_0.png,152.0,right,4,14,74,2,,,a,0,1.51173870000639,raghav_b,001,2020_Dec_09_1423,hue_diff,2020.2.10,60.016912765542045,
images/pbg_bu_2.png,images/pbg_bu_0.png,152.0,right,5,0,75,2,,,a,0,4.268486600019969,raghav_b,001,2020_Dec_09_1423,hue_diff,2020.2.10,60.016912765542045,
images/pbg_bu_7.png,images/pbg_bu_0.png,157.0,left,5,1,76,7,,,left,1,1.2974377000064123,raghav_b,001,2020_Dec_09_1423,hue_diff,2020.2.10,60.016912765542045,
images/pbg_bu_11.png,images/pbg_bu_0.png,161.0,down,5,2,77,11,,,down,1,1.2905066000239458,raghav_b,001,2020_Dec_09_1423,hue_diff,2020.2.10,60.016912765542045,
images/pbg_bu_10.png,images/pbg_bu_0.png,160.0,up,5,3,78,10,,,up,1,1.3768334000196774,raghav_b,001,2020_Dec_09_1423,hue_diff,2020.2.10,60.016912765542045,
images/pbg_bu_0.png,images/pbg_bu_0.png,150.0,up,5,4,79,0,,,a,0,1.7516844999918249,raghav_b,001,2020_Dec_09_1423,hue_diff,2020.2.10,60.016912765542045,
images/pbg_bu_1.png,images/pbg_bu_0.png,151.0,right,5,5,80,1,,,a,0,1.8595895000034943,raghav_b,001,2020_Dec_09_1423,hue_diff,2020.2.10,60.016912765542045,
images/pbg_bu_4.png,images/pbg_bu_0.png,154.0,down,5,6,81,4,,,down,1,1.344608099985635,raghav_b,001,2020_Dec_09_1423,hue_diff,2020.2.10,60.016912765542045,
images/pbg_bu_3.png,images/pbg_bu_0.png,153.0,right,5,7,82,3,,,a,0,2.109273600013694,raghav_b,001,2020_Dec_09_1423,hue_diff,2020.2.10,60.016912765542045,
images/pbg_bu_13.png,images/pbg_bu_0.png,163.0,left,5,8,83,13,,,left,1,1.2350669000006747,raghav_b,001,2020_Dec_09_1423,hue_diff,2020.2.10,60.016912765542045,
images/pbg_bu_8.png,images/pbg_bu_0.png,158.0,left,5,9,84,8,,,left,1,1.3851947999792174,raghav_b,001,2020_Dec_09_1423,hue_diff,2020.2.10,60.016912765542045,
images/pbg_bu_6.png,images/pbg_bu_0.png,156.0,down,5,10,85,6,,,down,1,1.3013142000127118,raghav_b,001,2020_Dec_09_1423,hue_diff,2020.2.10,60.016912765542045,
images/pbg_bu_5.png,images/pbg_bu_0.png,155.0,up,5,11,86,5,,,up,1,1.298787400010042,raghav_b,001,2020_Dec_09_1423,hue_diff,2020.2.10,60.016912765542045,
images/pbg_bu_9.png,images/pbg_bu_0.png,159.0,down,5,12,87,9,,,down,1,1.235015000012936,raghav_b,001,2020_Dec_09_1423,hue_diff,2020.2.10,60.016912765542045,
images/pbg_bu_12.png,images/pbg_bu_0.png,162.0,down,5,13,88,12,,,down,1,1.2380801000108477,raghav_b,001,2020_Dec_09_1423,hue_diff,2020.2.10,60.016912765542045,
images/pbg_bu_14.png,images/pbg_bu_0.png,164.0,up,5,14,89,14,,,up,1,1.2389160000020638,raghav_b,001,2020_Dec_09_1423,hue_diff,2020.2.10,60.016912765542045,
images/pbg_bu_10.png,images/pbg_bu_0.png,160.0,up,6,0,90,10,,,up,1,1.5881628000061028,raghav_b,001,2020_Dec_09_1423,hue_diff,2020.2.10,60.016912765542045,
images/pbg_bu_4.png,images/pbg_bu_0.png,154.0,down,6,1,91,4,,,a,0,3.115320700017037,raghav_b,001,2020_Dec_09_1423,hue_diff,2020.2.10,60.016912765542045,
images/pbg_bu_7.png,images/pbg_bu_0.png,157.0,left,6,2,92,7,,,left,1,1.4449937000172213,raghav_b,001,2020_Dec_09_1423,hue_diff,2020.2.10,60.016912765542045,
images/pbg_bu_8.png,images/pbg_bu_0.png,158.0,left,6,3,93,8,,,left,1,1.443785499985097,raghav_b,001,2020_Dec_09_1423,hue_diff,2020.2.10,60.016912765542045,
images/pbg_bu_6.png,images/pbg_bu_0.png,156.0,down,6,4,94,6,,,down,1,1.477164600015385,raghav_b,001,2020_Dec_09_1423,hue_diff,2020.2.10,60.016912765542045,
images/pbg_bu_3.png,images/pbg_bu_0.png,153.0,right,6,5,95,3,,,a,0,3.2112689999921713,raghav_b,001,2020_Dec_09_1423,hue_diff,2020.2.10,60.016912765542045,
images/pbg_bu_14.png,images/pbg_bu_0.png,164.0,up,6,6,96,14,,,up,1,1.4260757000010926,raghav_b,001,2020_Dec_09_1423,hue_diff,2020.2.10,60.016912765542045,
images/pbg_bu_11.png,images/pbg_bu_0.png,161.0,down,6,7,97,11,,,down,1,1.38600349999615,raghav_b,001,2020_Dec_09_1423,hue_diff,2020.2.10,60.016912765542045,
images/pbg_bu_5.png,images/pbg_bu_0.png,155.0,up,6,8,98,5,,,up,1,1.391636299988022,raghav_b,001,2020_Dec_09_1423,hue_diff,2020.2.10,60.016912765542045,
images/pbg_bu_12.png,images/pbg_bu_0.png,162.0,down,6,9,99,12,,,down,1,1.3908561999851372,raghav_b,001,2020_Dec_09_1423,hue_diff,2020.2.10,60.016912765542045,
images/pbg_bu_9.png,images/pbg_bu_0.png,159.0,down,6,10,100,9,,,down,1,1.2983637000143062,raghav_b,001,2020_Dec_09_1423,hue_diff,2020.2.10,60.016912765542045,
images/pbg_bu_2.png,images/pbg_bu_0.png,152.0,right,6,11,101,2,,,a,0,1.9245210000080988,raghav_b,001,2020_Dec_09_1423,hue_diff,2020.2.10,60.016912765542045,
images/pbg_bu_13.png,images/pbg_bu_0.png,163.0,left,6,12,102,13,,,left,1,1.370505700004287,raghav_b,001,2020_Dec_09_1423,hue_diff,2020.2.10,60.016912765542045,
images/pbg_bu_0.png,images/pbg_bu_0.png,150.0,up,6,13,103,0,,,a,0,2.372478000004776,raghav_b,001,2020_Dec_09_1423,hue_diff,2020.2.10,60.016912765542045,
images/pbg_bu_1.png,images/pbg_bu_0.png,151.0,right,6,14,104,1,,,a,0,1.7069286000041757,raghav_b,001,2020_Dec_09_1423,hue_diff,2020.2.10,60.016912765542045,
images/pbg_bu_4.png,images/pbg_bu_0.png,154.0,down,7,0,105,4,,,a,0,4.06229900001199,raghav_b,001,2020_Dec_09_1423,hue_diff,2020.2.10,60.016912765542045,
images/pbg_bu_2.png,images/pbg_bu_0.png,152.0,right,7,1,106,2,,,a,0,1.7150084000022616,raghav_b,001,2020_Dec_09_1423,hue_diff,2020.2.10,60.016912765542045,
images/pbg_bu_8.png,images/pbg_bu_0.png,158.0,left,7,2,107,8,,,left,1,1.330716000025859,raghav_b,001,2020_Dec_09_1423,hue_diff,2020.2.10,60.016912765542045,
images/pbg_bu_13.png,images/pbg_bu_0.png,163.0,left,7,3,108,13,,,left,1,1.4285959999833722,raghav_b,001,2020_Dec_09_1423,hue_diff,2020.2.10,60.016912765542045,
images/pbg_bu_12.png,images/pbg_bu_0.png,162.0,down,7,4,109,12,,,down,1,1.3595189999905415,raghav_b,001,2020_Dec_09_1423,hue_diff,2020.2.10,60.016912765542045,
images/pbg_bu_5.png,images/pbg_bu_0.png,155.0,up,7,5,110,5,,,up,1,1.4033337000000756,raghav_b,001,2020_Dec_09_1423,hue_diff,2020.2.10,60.016912765542045,
images/pbg_bu_1.png,images/pbg_bu_0.png,151.0,right,7,6,111,1,,,a,0,2.1216985000064597,raghav_b,001,2020_Dec_09_1423,hue_diff,2020.2.10,60.016912765542045,
images/pbg_bu_14.png,images/pbg_bu_0.png,164.0,up,7,7,112,14,,,up,1,1.278062299999874,raghav_b,001,2020_Dec_09_1423,hue_diff,2020.2.10,60.016912765542045,
images/pbg_bu_10.png,images/pbg_bu_0.png,160.0,up,7,8,113,10,,,up,1,1.4676556999911554,raghav_b,001,2020_Dec_09_1423,hue_diff,2020.2.10,60.016912765542045,
images/pbg_bu_3.png,images/pbg_bu_0.png,153.0,right,7,9,114,3,,,a,0,1.6244643999962136,raghav_b,001,2020_Dec_09_1423,hue_diff,2020.2.10,60.016912765542045,
images/pbg_bu_0.png,images/pbg_bu_0.png,150.0,up,7,10,115,0,,,a,0,1.7930533000035211,raghav_b,001,2020_Dec_09_1423,hue_diff,2020.2.10,60.016912765542045,
images/pbg_bu_11.png,images/pbg_bu_0.png,161.0,down,7,11,116,11,,,down,1,1.302955799998017,raghav_b,001,2020_Dec_09_1423,hue_diff,2020.2.10,60.016912765542045,
images/pbg_bu_7.png,images/pbg_bu_0.png,157.0,left,7,12,117,7,,,left,1,1.4835263999993913,raghav_b,001,2020_Dec_09_1423,hue_diff,2020.2.10,60.016912765542045,
images/pbg_bu_9.png,images/pbg_bu_0.png,159.0,down,7,13,118,9,,,down,1,1.414711100020213,raghav_b,001,2020_Dec_09_1423,hue_diff,2020.2.10,60.016912765542045,
images/pbg_bu_6.png,images/pbg_bu_0.png,156.0,down,7,14,119,6,,,down,1,1.4534837999963202,raghav_b,001,2020_Dec_09_1423,hue_diff,2020.2.10,60.016912765542045,
images/pbg_bu_8.png,images/pbg_bu_0.png,158.0,left,8,0,120,8,,,left,1,1.282386199978646,raghav_b,001,2020_Dec_09_1423,hue_diff,2020.2.10,60.016912765542045,
images/pbg_bu_6.png,images/pbg_bu_0.png,156.0,down,8,1,121,6,,,down,1,1.4112597999919672,raghav_b,001,2020_Dec_09_1423,hue_diff,2020.2.10,60.016912765542045,
images/pbg_bu_7.png,images/pbg_bu_0.png,157.0,left,8,2,122,7,,,left,1,1.3102033000031952,raghav_b,001,2020_Dec_09_1423,hue_diff,2020.2.10,60.016912765542045,
images/pbg_bu_3.png,images/pbg_bu_0.png,153.0,right,8,3,123,3,,,a,0,1.8160614999942482,raghav_b,001,2020_Dec_09_1423,hue_diff,2020.2.10,60.016912765542045,
images/pbg_bu_1.png,images/pbg_bu_0.png,151.0,right,8,4,124,1,,,a,0,0.024275500007206574,raghav_b,001,2020_Dec_09_1423,hue_diff,2020.2.10,60.016912765542045,
images/pbg_bu_0.png,images/pbg_bu_0.png,150.0,up,8,5,125,0,,,a,0,2.5470832999853883,raghav_b,001,2020_Dec_09_1423,hue_diff,2020.2.10,60.016912765542045,
images/pbg_bu_4.png,images/pbg_bu_0.png,154.0,down,8,6,126,4,,,down,1,1.3780516999831889,raghav_b,001,2020_Dec_09_1423,hue_diff,2020.2.10,60.016912765542045,
images/pbg_bu_13.png,images/pbg_bu_0.png,163.0,left,8,7,127,13,,,left,1,1.4152238999959081,raghav_b,001,2020_Dec_09_1423,hue_diff,2020.2.10,60.016912765542045,
images/pbg_bu_14.png,images/pbg_bu_0.png,164.0,up,8,8,128,14,,,up,1,1.3649705999996513,raghav_b,001,2020_Dec_09_1423,hue_diff,2020.2.10,60.016912765542045,
images/pbg_bu_11.png,images/pbg_bu_0.png,161.0,down,8,9,129,11,,,down,1,1.4030597999808379,raghav_b,001,2020_Dec_09_1423,hue_diff,2020.2.10,60.016912765542045,
images/pbg_bu_9.png,images/pbg_bu_0.png,159.0,down,8,10,130,9,,,down,1,1.3991095999954268,raghav_b,001,2020_Dec_09_1423,hue_diff,2020.2.10,60.016912765542045,
images/pbg_bu_10.png,images/pbg_bu_0.png,160.0,up,8,11,131,10,,,up,1,1.4462376000010408,raghav_b,001,2020_Dec_09_1423,hue_diff,2020.2.10,60.016912765542045,
images/pbg_bu_5.png,images/pbg_bu_0.png,155.0,up,8,12,132,5,,,a,0,2.4136089999810793,raghav_b,001,2020_Dec_09_1423,hue_diff,2020.2.10,60.016912765542045,
images/pbg_bu_12.png,images/pbg_bu_0.png,162.0,down,8,13,133,12,,,down,1,1.4037834999908227,raghav_b,001,2020_Dec_09_1423,hue_diff,2020.2.10,60.016912765542045,
images/pbg_bu_2.png,images/pbg_bu_0.png,152.0,right,8,14,134,2,,,a,0,4.222705500025768,raghav_b,001,2020_Dec_09_1423,hue_diff,2020.2.10,60.016912765542045,
images/pbg_bu_1.png,images/pbg_bu_0.png,151.0,right,9,0,135,1,,,a,0,2.528746099997079,raghav_b,001,2020_Dec_09_1423,hue_diff,2020.2.10,60.016912765542045,
images/pbg_bu_12.png,images/pbg_bu_0.png,162.0,down,9,1,136,12,,,down,1,1.3963979000109248,raghav_b,001,2020_Dec_09_1423,hue_diff,2020.2.10,60.016912765542045,
images/pbg_bu_5.png,images/pbg_bu_0.png,155.0,up,9,2,137,5,,,up,1,1.3868906999996398,raghav_b,001,2020_Dec_09_1423,hue_diff,2020.2.10,60.016912765542045,
images/pbg_bu_0.png,images/pbg_bu_0.png,150.0,up,9,3,138,0,,,a,0,1.9755344000004698,raghav_b,001,2020_Dec_09_1423,hue_diff,2020.2.10,60.016912765542045,
images/pbg_bu_2.png,images/pbg_bu_0.png,152.0,right,9,4,139,2,,,a,0,2.2712313999945763,raghav_b,001,2020_Dec_09_1423,hue_diff,2020.2.10,60.016912765542045,
images/pbg_bu_10.png,images/pbg_bu_0.png,160.0,up,9,5,140,10,,,up,1,1.2953310000011697,raghav_b,001,2020_Dec_09_1423,hue_diff,2020.2.10,60.016912765542045,
images/pbg_bu_14.png,images/pbg_bu_0.png,164.0,up,9,6,141,14,,,up,1,1.2868617000058293,raghav_b,001,2020_Dec_09_1423,hue_diff,2020.2.10,60.016912765542045,
images/pbg_bu_3.png,images/pbg_bu_0.png,153.0,right,9,7,142,3,,,a,0,1.6110490999999456,raghav_b,001,2020_Dec_09_1423,hue_diff,2020.2.10,60.016912765542045,
images/pbg_bu_6.png,images/pbg_bu_0.png,156.0,down,9,8,143,6,,,down,1,1.4024987999873701,raghav_b,001,2020_Dec_09_1423,hue_diff,2020.2.10,60.016912765542045,
images/pbg_bu_13.png,images/pbg_bu_0.png,163.0,left,9,9,144,13,,,left,1,1.3425834000227042,raghav_b,001,2020_Dec_09_1423,hue_diff,2020.2.10,60.016912765542045,
images/pbg_bu_8.png,images/pbg_bu_0.png,158.0,left,9,10,145,8,,,left,1,1.4322127000195906,raghav_b,001,2020_Dec_09_1423,hue_diff,2020.2.10,60.016912765542045,
images/pbg_bu_9.png,images/pbg_bu_0.png,159.0,down,9,11,146,9,,,down,1,1.2721367000194732,raghav_b,001,2020_Dec_09_1423,hue_diff,2020.2.10,60.016912765542045,
images/pbg_bu_7.png,images/pbg_bu_0.png,157.0,left,9,12,147,7,,,left,1,1.462224499991862,raghav_b,001,2020_Dec_09_1423,hue_diff,2020.2.10,60.016912765542045,
images/pbg_bu_4.png,images/pbg_bu_0.png,154.0,down,9,13,148,4,,,down,1,1.4033967000141274,raghav_b,001,2020_Dec_09_1423,hue_diff,2020.2.10,60.016912765542045,
images/pbg_bu_11.png,images/pbg_bu_0.png,161.0,down,9,14,149,11,,,down,1,1.344165599992266,raghav_b,001,2020_Dec_09_1423,hue_diff,2020.2.10,60.016912765542045,
images/pbg_bu_7.png,images/pbg_bu_0.png,157.0,left,10,0,150,7,,,left,1,1.401707200013334,raghav_b,001,2020_Dec_09_1423,hue_diff,2020.2.10,60.016912765542045,
images/pbg_bu_5.png,images/pbg_bu_0.png,155.0,up,10,1,151,5,,,a,0,1.9040676000004169,raghav_b,001,2020_Dec_09_1423,hue_diff,2020.2.10,60.016912765542045,
images/pbg_bu_9.png,images/pbg_bu_0.png,159.0,down,10,2,152,9,,,down,1,1.3080990000162274,raghav_b,001,2020_Dec_09_1423,hue_diff,2020.2.10,60.016912765542045,
images/pbg_bu_10.png,images/pbg_bu_0.png,160.0,up,10,3,153,10,,,up,1,1.3932536999927834,raghav_b,001,2020_Dec_09_1423,hue_diff,2020.2.10,60.016912765542045,
images/pbg_bu_2.png,images/pbg_bu_0.png,152.0,right,10,4,154,2,,,a,0,1.6677379000175279,raghav_b,001,2020_Dec_09_1423,hue_diff,2020.2.10,60.016912765542045,
images/pbg_bu_4.png,images/pbg_bu_0.png,154.0,down,10,5,155,4,,,down,1,1.3978850000130478,raghav_b,001,2020_Dec_09_1423,hue_diff,2020.2.10,60.016912765542045,
images/pbg_bu_3.png,images/pbg_bu_0.png,153.0,right,10,6,156,3,,,a,0,1.596048500010511,raghav_b,001,2020_Dec_09_1423,hue_diff,2020.2.10,60.016912765542045,
images/pbg_bu_6.png,images/pbg_bu_0.png,156.0,down,10,7,157,6,,,down,1,2.8897587999817915,raghav_b,001,2020_Dec_09_1423,hue_diff,2020.2.10,60.016912765542045,
images/pbg_bu_13.png,images/pbg_bu_0.png,163.0,left,10,8,158,13,,,left,1,1.38574939998216,raghav_b,001,2020_Dec_09_1423,hue_diff,2020.2.10,60.016912765542045,
images/pbg_bu_1.png,images/pbg_bu_0.png,151.0,right,10,9,159,1,,,a,0,1.7301344999868888,raghav_b,001,2020_Dec_09_1423,hue_diff,2020.2.10,60.016912765542045,
images/pbg_bu_0.png,images/pbg_bu_0.png,150.0,up,10,10,160,0,,,a,0,1.7181221999926493,raghav_b,001,2020_Dec_09_1423,hue_diff,2020.2.10,60.016912765542045,
images/pbg_bu_14.png,images/pbg_bu_0.png,164.0,up,10,11,161,14,,,up,1,1.3453210000006948,raghav_b,001,2020_Dec_09_1423,hue_diff,2020.2.10,60.016912765542045,
images/pbg_bu_11.png,images/pbg_bu_0.png,161.0,down,10,12,162,11,,,down,1,1.3584379999956582,raghav_b,001,2020_Dec_09_1423,hue_diff,2020.2.10,60.016912765542045,
images/pbg_bu_12.png,images/pbg_bu_0.png,162.0,down,10,13,163,12,,,down,1,1.4670896000170615,raghav_b,001,2020_Dec_09_1423,hue_diff,2020.2.10,60.016912765542045,
images/pbg_bu_8.png,images/pbg_bu_0.png,158.0,left,10,14,164,8,,,left,1,1.4510321999841835,raghav_b,001,2020_Dec_09_1423,hue_diff,2020.2.10,60.016912765542045,
images/pbg_bu_5.png,images/pbg_bu_0.png,155.0,up,11,0,165,5,,,up,1,1.4706065999926068,raghav_b,001,2020_Dec_09_1423,hue_diff,2020.2.10,60.016912765542045,
images/pbg_bu_10.png,images/pbg_bu_0.png,160.0,up,11,1,166,10,,,up,1,1.4376564999984112,raghav_b,001,2020_Dec_09_1423,hue_diff,2020.2.10,60.016912765542045,
images/pbg_bu_2.png,images/pbg_bu_0.png,152.0,right,11,2,167,2,,,a,0,2.486960599984741,raghav_b,001,2020_Dec_09_1423,hue_diff,2020.2.10,60.016912765542045,
images/pbg_bu_0.png,images/pbg_bu_0.png,150.0,up,11,3,168,0,,,a,0,1.9135189999942668,raghav_b,001,2020_Dec_09_1423,hue_diff,2020.2.10,60.016912765542045,
images/pbg_bu_8.png,images/pbg_bu_0.png,158.0,left,11,4,169,8,,,left,1,1.3528108000173233,raghav_b,001,2020_Dec_09_1423,hue_diff,2020.2.10,60.016912765542045,
images/pbg_bu_4.png,images/pbg_bu_0.png,154.0,down,11,5,170,4,,,down,1,1.417717200005427,raghav_b,001,2020_Dec_09_1423,hue_diff,2020.2.10,60.016912765542045,
images/pbg_bu_14.png,images/pbg_bu_0.png,164.0,up,11,6,171,14,,,up,1,1.3339724999968894,raghav_b,001,2020_Dec_09_1423,hue_diff,2020.2.10,60.016912765542045,
images/pbg_bu_6.png,images/pbg_bu_0.png,156.0,down,11,7,172,6,,,down,1,1.269685200008098,raghav_b,001,2020_Dec_09_1423,hue_diff,2020.2.10,60.016912765542045,
images/pbg_bu_1.png,images/pbg_bu_0.png,151.0,right,11,8,173,1,,,a,0,2.0995652999845333,raghav_b,001,2020_Dec_09_1423,hue_diff,2020.2.10,60.016912765542045,
images/pbg_bu_3.png,images/pbg_bu_0.png,153.0,right,11,9,174,3,,,a,0,3.767676699993899,raghav_b,001,2020_Dec_09_1423,hue_diff,2020.2.10,60.016912765542045,
images/pbg_bu_7.png,images/pbg_bu_0.png,157.0,left,11,10,175,7,,,left,1,1.3928923000057694,raghav_b,001,2020_Dec_09_1423,hue_diff,2020.2.10,60.016912765542045,
images/pbg_bu_12.png,images/pbg_bu_0.png,162.0,down,11,11,176,12,,,down,1,1.3517114999995101,raghav_b,001,2020_Dec_09_1423,hue_diff,2020.2.10,60.016912765542045,
images/pbg_bu_9.png,images/pbg_bu_0.png,159.0,down,11,12,177,9,,,down,1,1.2903781000059098,raghav_b,001,2020_Dec_09_1423,hue_diff,2020.2.10,60.016912765542045,
images/pbg_bu_13.png,images/pbg_bu_0.png,163.0,left,11,13,178,13,,,left,1,1.3873805000039283,raghav_b,001,2020_Dec_09_1423,hue_diff,2020.2.10,60.016912765542045,
images/pbg_bu_11.png,images/pbg_bu_0.png,161.0,down,11,14,179,11,,,down,1,1.2657690000196453,raghav_b,001,2020_Dec_09_1423,hue_diff,2020.2.10,60.016912765542045,
images/pbg_bu_8.png,images/pbg_bu_0.png,158.0,left,12,0,180,8,,,left,1,1.344567799998913,raghav_b,001,2020_Dec_09_1423,hue_diff,2020.2.10,60.016912765542045,
images/pbg_bu_4.png,images/pbg_bu_0.png,154.0,down,12,1,181,4,,,down,1,1.3787315000081435,raghav_b,001,2020_Dec_09_1423,hue_diff,2020.2.10,60.016912765542045,
images/pbg_bu_14.png,images/pbg_bu_0.png,164.0,up,12,2,182,14,,,up,1,1.3607899000053294,raghav_b,001,2020_Dec_09_1423,hue_diff,2020.2.10,60.016912765542045,
images/pbg_bu_11.png,images/pbg_bu_0.png,161.0,down,12,3,183,11,,,down,1,1.2816618000215385,raghav_b,001,2020_Dec_09_1423,hue_diff,2020.2.10,60.016912765542045,
images/pbg_bu_6.png,images/pbg_bu_0.png,156.0,down,12,4,184,6,,,down,1,1.5275635000143666,raghav_b,001,2020_Dec_09_1423,hue_diff,2020.2.10,60.016912765542045,
images/pbg_bu_1.png,images/pbg_bu_0.png,151.0,right,12,5,185,1,,,a,0,2.90203670001938,raghav_b,001,2020_Dec_09_1423,hue_diff,2020.2.10,60.016912765542045,
images/pbg_bu_9.png,images/pbg_bu_0.png,159.0,down,12,6,186,9,,,down,1,1.3228084000002127,raghav_b,001,2020_Dec_09_1423,hue_diff,2020.2.10,60.016912765542045,
images/pbg_bu_7.png,images/pbg_bu_0.png,157.0,left,12,7,187,7,,,left,1,1.4391856000002008,raghav_b,001,2020_Dec_09_1423,hue_diff,2020.2.10,60.016912765542045,
images/pbg_bu_12.png,images/pbg_bu_0.png,162.0,down,12,8,188,12,,,down,1,1.2238940999959596,raghav_b,001,2020_Dec_09_1423,hue_diff,2020.2.10,60.016912765542045,
images/pbg_bu_2.png,images/pbg_bu_0.png,152.0,right,12,9,189,2,,,a,0,2.103070699988166,raghav_b,001,2020_Dec_09_1423,hue_diff,2020.2.10,60.016912765542045,
images/pbg_bu_10.png,images/pbg_bu_0.png,160.0,up,12,10,190,10,,,up,1,1.2379979999968782,raghav_b,001,2020_Dec_09_1423,hue_diff,2020.2.10,60.016912765542045,
images/pbg_bu_13.png,images/pbg_bu_0.png,163.0,left,12,11,191,13,,,left,1,1.4286519000015687,raghav_b,001,2020_Dec_09_1423,hue_diff,2020.2.10,60.016912765542045,
images/pbg_bu_3.png,images/pbg_bu_0.png,153.0,right,12,12,192,3,,,a,0,1.63185100001283,raghav_b,001,2020_Dec_09_1423,hue_diff,2020.2.10,60.016912765542045,
images/pbg_bu_0.png,images/pbg_bu_0.png,150.0,up,12,13,193,0,,,a,0,3.1870775000134017,raghav_b,001,2020_Dec_09_1423,hue_diff,2020.2.10,60.016912765542045,
images/pbg_bu_5.png,images/pbg_bu_0.png,155.0,up,12,14,194,5,,,up,1,1.4649097000074107,raghav_b,001,2020_Dec_09_1423,hue_diff,2020.2.10,60.016912765542045,
images/pbg_bu_7.png,images/pbg_bu_0.png,157.0,left,13,0,195,7,,,left,1,1.2104689000116196,raghav_b,001,2020_Dec_09_1423,hue_diff,2020.2.10,60.016912765542045,
images/pbg_bu_9.png,images/pbg_bu_0.png,159.0,down,13,1,196,9,,,down,1,1.211914399988018,raghav_b,001,2020_Dec_09_1423,hue_diff,2020.2.10,60.016912765542045,
images/pbg_bu_8.png,images/pbg_bu_0.png,158.0,left,13,2,197,8,,,left,1,0.9771202999982052,raghav_b,001,2020_Dec_09_1423,hue_diff,2020.2.10,60.016912765542045,
images/pbg_bu_0.png,images/pbg_bu_0.png,150.0,up,13,3,198,0,,,a,0,1.509379800001625,raghav_b,001,2020_Dec_09_1423,hue_diff,2020.2.10,60.016912765542045,
images/pbg_bu_10.png,images/pbg_bu_0.png,160.0,up,13,4,199,10,,,up,1,0.9623780999972951,raghav_b,001,2020_Dec_09_1423,hue_diff,2020.2.10,60.016912765542045,
images/pbg_bu_13.png,images/pbg_bu_0.png,163.0,left,13,5,200,13,,,left,1,0.9088215999945533,raghav_b,001,2020_Dec_09_1423,hue_diff,2020.2.10,60.016912765542045,
images/pbg_bu_14.png,images/pbg_bu_0.png,164.0,up,13,6,201,14,,,up,1,0.8929254000249784,raghav_b,001,2020_Dec_09_1423,hue_diff,2020.2.10,60.016912765542045,
images/pbg_bu_1.png,images/pbg_bu_0.png,151.0,right,13,7,202,1,,,a,0,1.3730355000006966,raghav_b,001,2020_Dec_09_1423,hue_diff,2020.2.10,60.016912765542045,
images/pbg_bu_11.png,images/pbg_bu_0.png,161.0,down,13,8,203,11,,,down,1,1.1647145999886561,raghav_b,001,2020_Dec_09_1423,hue_diff,2020.2.10,60.016912765542045,
images/pbg_bu_3.png,images/pbg_bu_0.png,153.0,right,13,9,204,3,,,a,0,1.6683957000204828,raghav_b,001,2020_Dec_09_1423,hue_diff,2020.2.10,60.016912765542045,
images/pbg_bu_4.png,images/pbg_bu_0.png,154.0,down,13,10,205,4,,,a,0,1.8658081000030506,raghav_b,001,2020_Dec_09_1423,hue_diff,2020.2.10,60.016912765542045,
images/pbg_bu_2.png,images/pbg_bu_0.png,152.0,right,13,11,206,2,,,a,0,1.5138961000193376,raghav_b,001,2020_Dec_09_1423,hue_diff,2020.2.10,60.016912765542045,
images/pbg_bu_5.png,images/pbg_bu_0.png,155.0,up,13,12,207,5,,,up,1,1.4283456999983173,raghav_b,001,2020_Dec_09_1423,hue_diff,2020.2.10,60.016912765542045,
images/pbg_bu_6.png,images/pbg_bu_0.png,156.0,down,13,13,208,6,,,down,1,1.3375791999860667,raghav_b,001,2020_Dec_09_1423,hue_diff,2020.2.10,60.016912765542045,
images/pbg_bu_12.png,images/pbg_bu_0.png,162.0,down,13,14,209,12,,,down,1,1.3945239000022411,raghav_b,001,2020_Dec_09_1423,hue_diff,2020.2.10,60.016912765542045,
images/pbg_bu_4.png,images/pbg_bu_0.png,154.0,down,14,0,210,4,,,a,0,1.4661499000212643,raghav_b,001,2020_Dec_09_1423,hue_diff,2020.2.10,60.016912765542045,
images/pbg_bu_2.png,images/pbg_bu_0.png,152.0,right,14,1,211,2,,,right,1,1.8142587000038475,raghav_b,001,2020_Dec_09_1423,hue_diff,2020.2.10,60.016912765542045,
images/pbg_bu_5.png,images/pbg_bu_0.png,155.0,up,14,2,212,5,,,up,1,1.4775937999947928,raghav_b,001,2020_Dec_09_1423,hue_diff,2020.2.10,60.016912765542045,
images/pbg_bu_0.png,images/pbg_bu_0.png,150.0,up,14,3,213,0,,,a,0,1.6412488000059966,raghav_b,001,2020_Dec_09_1423,hue_diff,2020.2.10,60.016912765542045,
images/pbg_bu_12.png,images/pbg_bu_0.png,162.0,down,14,4,214,12,,,down,1,1.3152277000190224,raghav_b,001,2020_Dec_09_1423,hue_diff,2020.2.10,60.016912765542045,
images/pbg_bu_3.png,images/pbg_bu_0.png,153.0,right,14,5,215,3,,,a,0,1.9897109000012279,raghav_b,001,2020_Dec_09_1423,hue_diff,2020.2.10,60.016912765542045,
images/pbg_bu_14.png,images/pbg_bu_0.png,164.0,up,14,6,216,14,,,up,1,1.3422187000105623,raghav_b,001,2020_Dec_09_1423,hue_diff,2020.2.10,60.016912765542045,
images/pbg_bu_6.png,images/pbg_bu_0.png,156.0,down,14,7,217,6,,,down,1,1.3397594999987632,raghav_b,001,2020_Dec_09_1423,hue_diff,2020.2.10,60.016912765542045,
images/pbg_bu_11.png,images/pbg_bu_0.png,161.0,down,14,8,218,11,,,down,1,1.2797060000011697,raghav_b,001,2020_Dec_09_1423,hue_diff,2020.2.10,60.016912765542045,
images/pbg_bu_9.png,images/pbg_bu_0.png,159.0,down,14,9,219,9,,,down,1,1.283813399990322,raghav_b,001,2020_Dec_09_1423,hue_diff,2020.2.10,60.016912765542045,
images/pbg_bu_10.png,images/pbg_bu_0.png,160.0,up,14,10,220,10,,,up,1,1.27961110000615,raghav_b,001,2020_Dec_09_1423,hue_diff,2020.2.10,60.016912765542045,
images/pbg_bu_13.png,images/pbg_bu_0.png,163.0,left,14,11,221,13,,,left,1,3.436857000022428,raghav_b,001,2020_Dec_09_1423,hue_diff,2020.2.10,60.016912765542045,
images/pbg_bu_1.png,images/pbg_bu_0.png,151.0,right,14,12,222,1,,,a,0,1.5495330000121612,raghav_b,001,2020_Dec_09_1423,hue_diff,2020.2.10,60.016912765542045,
images/pbg_bu_8.png,images/pbg_bu_0.png,158.0,left,14,13,223,8,,,left,1,1.3985397999931592,raghav_b,001,2020_Dec_09_1423,hue_diff,2020.2.10,60.016912765542045,
images/pbg_bu_7.png,images/pbg_bu_0.png,157.0,left,14,14,224,7,,,left,1,1.3041470999887679,raghav_b,001,2020_Dec_09_1423,hue_diff,2020.2.10,60.016912765542045,
images/pbg_bu_13.png,images/pbg_bu_0.png,163.0,left,15,0,225,13,,,left,1,1.323560799995903,raghav_b,001,2020_Dec_09_1423,hue_diff,2020.2.10,60.016912765542045,
images/pbg_bu_3.png,images/pbg_bu_0.png,153.0,right,15,1,226,3,,,right,1,1.4173531999986153,raghav_b,001,2020_Dec_09_1423,hue_diff,2020.2.10,60.016912765542045,
images/pbg_bu_14.png,images/pbg_bu_0.png,164.0,up,15,2,227,14,,,up,1,1.1478670999931637,raghav_b,001,2020_Dec_09_1423,hue_diff,2020.2.10,60.016912765542045,
images/pbg_bu_0.png,images/pbg_bu_0.png,150.0,up,15,3,228,0,,,a,0,1.613778699975228,raghav_b,001,2020_Dec_09_1423,hue_diff,2020.2.10,60.016912765542045,
images/pbg_bu_8.png,images/pbg_bu_0.png,158.0,left,15,4,229,8,,,left,1,0.8887838999798987,raghav_b,001,2020_Dec_09_1423,hue_diff,2020.2.10,60.016912765542045,
images/pbg_bu_9.png,images/pbg_bu_0.png,159.0,down,15,5,230,9,,,down,1,1.1153912000008859,raghav_b,001,2020_Dec_09_1423,hue_diff,2020.2.10,60.016912765542045,
images/pbg_bu_7.png,images/pbg_bu_0.png,157.0,left,15,6,231,7,,,left,1,1.0123781000147574,raghav_b,001,2020_Dec_09_1423,hue_diff,2020.2.10,60.016912765542045,
images/pbg_bu_10.png,images/pbg_bu_0.png,160.0,up,15,7,232,10,,,up,1,0.8940500000026077,raghav_b,001,2020_Dec_09_1423,hue_diff,2020.2.10,60.016912765542045,
images/pbg_bu_1.png,images/pbg_bu_0.png,151.0,right,15,8,233,1,,,a,0,1.4522073999978602,raghav_b,001,2020_Dec_09_1423,hue_diff,2020.2.10,60.016912765542045,
images/pbg_bu_11.png,images/pbg_bu_0.png,161.0,down,15,9,234,11,,,down,1,1.0442333999963012,raghav_b,001,2020_Dec_09_1423,hue_diff,2020.2.10,60.016912765542045,
images/pbg_bu_5.png,images/pbg_bu_0.png,155.0,up,15,10,235,5,,,up,1,0.9871446999895852,raghav_b,001,2020_Dec_09_1423,hue_diff,2020.2.10,60.016912765542045,
images/pbg_bu_6.png,images/pbg_bu_0.png,156.0,down,15,11,236,6,,,left,0,1.0570061999897007,raghav_b,001,2020_Dec_09_1423,hue_diff,2020.2.10,60.016912765542045,
images/pbg_bu_2.png,images/pbg_bu_0.png,152.0,right,15,12,237,2,,,a,0,1.955363799992483,raghav_b,001,2020_Dec_09_1423,hue_diff,2020.2.10,60.016912765542045,
images/pbg_bu_4.png,images/pbg_bu_0.png,154.0,down,15,13,238,4,,,a,0,2.173122499982128,raghav_b,001,2020_Dec_09_1423,hue_diff,2020.2.10,60.016912765542045,
images/pbg_bu_12.png,images/pbg_bu_0.png,162.0,down,15,14,239,12,,,down,1,1.12258599998313,raghav_b,001,2020_Dec_09_1423,hue_diff,2020.2.10,60.016912765542045,
images/pbg_bu_3.png,images/pbg_bu_0.png,153.0,right,16,0,240,3,,,right,1,1.4559531999984756,raghav_b,001,2020_Dec_09_1423,hue_diff,2020.2.10,60.016912765542045,
images/pbg_bu_12.png,images/pbg_bu_0.png,162.0,down,16,1,241,12,,,down,1,1.1301416000060271,raghav_b,001,2020_Dec_09_1423,hue_diff,2020.2.10,60.016912765542045,
images/pbg_bu_1.png,images/pbg_bu_0.png,151.0,right,16,2,242,1,,,a,0,1.63706199999433,raghav_b,001,2020_Dec_09_1423,hue_diff,2020.2.10,60.016912765542045,
images/pbg_bu_9.png,images/pbg_bu_0.png,159.0,down,16,3,243,9,,,down,1,1.3425532999972347,raghav_b,001,2020_Dec_09_1423,hue_diff,2020.2.10,60.016912765542045,
images/pbg_bu_0.png,images/pbg_bu_0.png,150.0,up,16,4,244,0,,,a,0,1.971437900007004,raghav_b,001,2020_Dec_09_1423,hue_diff,2020.2.10,60.016912765542045,
images/pbg_bu_6.png,images/pbg_bu_0.png,156.0,down,16,5,245,6,,,down,1,1.3829367999860551,raghav_b,001,2020_Dec_09_1423,hue_diff,2020.2.10,60.016912765542045,
images/pbg_bu_4.png,images/pbg_bu_0.png,154.0,down,16,6,246,4,,,down,1,1.3818082000070717,raghav_b,001,2020_Dec_09_1423,hue_diff,2020.2.10,60.016912765542045,
images/pbg_bu_11.png,images/pbg_bu_0.png,161.0,down,16,7,247,11,,,down,1,1.2171313000144437,raghav_b,001,2020_Dec_09_1423,hue_diff,2020.2.10,60.016912765542045,
images/pbg_bu_8.png,images/pbg_bu_0.png,158.0,left,16,8,248,8,,,left,1,1.2222204999998212,raghav_b,001,2020_Dec_09_1423,hue_diff,2020.2.10,60.016912765542045,
images/pbg_bu_7.png,images/pbg_bu_0.png,157.0,left,16,9,249,7,,,left,1,1.2778457000094932,raghav_b,001,2020_Dec_09_1423,hue_diff,2020.2.10,60.016912765542045,
images/pbg_bu_2.png,images/pbg_bu_0.png,152.0,right,16,10,250,2,,,right,1,1.4636800999869592,raghav_b,001,2020_Dec_09_1423,hue_diff,2020.2.10,60.016912765542045,
images/pbg_bu_10.png,images/pbg_bu_0.png,160.0,up,16,11,251,10,,,up,1,1.205792399996426,raghav_b,001,2020_Dec_09_1423,hue_diff,2020.2.10,60.016912765542045,
images/pbg_bu_13.png,images/pbg_bu_0.png,163.0,left,16,12,252,13,,,left,1,1.1047281999781262,raghav_b,001,2020_Dec_09_1423,hue_diff,2020.2.10,60.016912765542045,
images/pbg_bu_14.png,images/pbg_bu_0.png,164.0,up,16,13,253,14,,,up,1,0.9637079000240192,raghav_b,001,2020_Dec_09_1423,hue_diff,2020.2.10,60.016912765542045,
images/pbg_bu_5.png,images/pbg_bu_0.png,155.0,up,16,14,254,5,,,up,1,1.0295425000076648,raghav_b,001,2020_Dec_09_1423,hue_diff,2020.2.10,60.016912765542045,
images/pbg_bu_0.png,images/pbg_bu_0.png,150.0,up,17,0,255,0,,,a,0,1.3958287999848835,raghav_b,001,2020_Dec_09_1423,hue_diff,2020.2.10,60.016912765542045,
images/pbg_bu_8.png,images/pbg_bu_0.png,158.0,left,17,1,256,8,,,left,1,0.9233353000017814,raghav_b,001,2020_Dec_09_1423,hue_diff,2020.2.10,60.016912765542045,
images/pbg_bu_10.png,images/pbg_bu_0.png,160.0,up,17,2,257,10,,,up,1,0.8944133999757469,raghav_b,001,2020_Dec_09_1423,hue_diff,2020.2.10,60.016912765542045,
images/pbg_bu_9.png,images/pbg_bu_0.png,159.0,down,17,3,258,9,,,down,1,1.0815921000030357,raghav_b,001,2020_Dec_09_1423,hue_diff,2020.2.10,60.016912765542045,
images/pbg_bu_3.png,images/pbg_bu_0.png,153.0,right,17,4,259,3,,,right,1,1.403188099997351,raghav_b,001,2020_Dec_09_1423,hue_diff,2020.2.10,60.016912765542045,
images/pbg_bu_1.png,images/pbg_bu_0.png,151.0,right,17,5,260,1,,,a,0,1.582410200004233,raghav_b,001,2020_Dec_09_1423,hue_diff,2020.2.10,60.016912765542045,
images/pbg_bu_2.png,images/pbg_bu_0.png,152.0,right,17,6,261,2,,,a,0,1.5057520999980625,raghav_b,001,2020_Dec_09_1423,hue_diff,2020.2.10,60.016912765542045,
images/pbg_bu_12.png,images/pbg_bu_0.png,162.0,down,17,7,262,12,,,down,1,1.1913397000171244,raghav_b,001,2020_Dec_09_1423,hue_diff,2020.2.10,60.016912765542045,
images/pbg_bu_4.png,images/pbg_bu_0.png,154.0,down,17,8,263,4,,,a,0,4.996978699986357,raghav_b,001,2020_Dec_09_1423,hue_diff,2020.2.10,60.016912765542045,
images/pbg_bu_7.png,images/pbg_bu_0.png,157.0,left,17,9,264,7,,,a,0,1.6166225000051782,raghav_b,001,2020_Dec_09_1423,hue_diff,2020.2.10,60.016912765542045,
images/pbg_bu_13.png,images/pbg_bu_0.png,163.0,left,17,10,265,13,,,left,1,1.5099291000224184,raghav_b,001,2020_Dec_09_1423,hue_diff,2020.2.10,60.016912765542045,
images/pbg_bu_14.png,images/pbg_bu_0.png,164.0,up,17,11,266,14,,,up,1,1.023164899990661,raghav_b,001,2020_Dec_09_1423,hue_diff,2020.2.10,60.016912765542045,
images/pbg_bu_11.png,images/pbg_bu_0.png,161.0,down,17,12,267,11,,,down,1,1.039652900013607,raghav_b,001,2020_Dec_09_1423,hue_diff,2020.2.10,60.016912765542045,
images/pbg_bu_5.png,images/pbg_bu_0.png,155.0,up,17,13,268,5,,,up,1,0.9966784999996889,raghav_b,001,2020_Dec_09_1423,hue_diff,2020.2.10,60.016912765542045,
images/pbg_bu_6.png,images/pbg_bu_0.png,156.0,down,17,14,269,6,,,down,1,1.114345100009814,raghav_b,001,2020_Dec_09_1423,hue_diff,2020.2.10,60.016912765542045,
images/pbg_bu_5.png,images/pbg_bu_0.png,155.0,up,18,0,270,5,,,a,0,1.8814108000078704,raghav_b,001,2020_Dec_09_1423,hue_diff,2020.2.10,60.016912765542045,
images/pbg_bu_2.png,images/pbg_bu_0.png,152.0,right,18,1,271,2,,,a,0,1.9722361999738496,raghav_b,001,2020_Dec_09_1423,hue_diff,2020.2.10,60.016912765542045,
images/pbg_bu_6.png,images/pbg_bu_0.png,156.0,down,18,2,272,6,,,down,1,1.377233699982753,raghav_b,001,2020_Dec_09_1423,hue_diff,2020.2.10,60.016912765542045,
images/pbg_bu_1.png,images/pbg_bu_0.png,151.0,right,18,3,273,1,,,a,0,2.0835157000110485,raghav_b,001,2020_Dec_09_1423,hue_diff,2020.2.10,60.016912765542045,
images/pbg_bu_9.png,images/pbg_bu_0.png,159.0,down,18,4,274,9,,,down,1,1.3361318999959622,raghav_b,001,2020_Dec_09_1423,hue_diff,2020.2.10,60.016912765542045,
images/pbg_bu_7.png,images/pbg_bu_0.png,157.0,left,18,5,275,7,,,left,1,1.2149332000117283,raghav_b,001,2020_Dec_09_1423,hue_diff,2020.2.10,60.016912765542045,
images/pbg_bu_4.png,images/pbg_bu_0.png,154.0,down,18,6,276,4,,,a,0,5.454720499983523,raghav_b,001,2020_Dec_09_1423,hue_diff,2020.2.10,60.016912765542045,
images/pbg_bu_8.png,images/pbg_bu_0.png,158.0,left,18,7,277,8,,,left,1,1.3675825000100303,raghav_b,001,2020_Dec_09_1423,hue_diff,2020.2.10,60.016912765542045,
images/pbg_bu_12.png,images/pbg_bu_0.png,162.0,down,18,8,278,12,,,down,1,1.480388000025414,raghav_b,001,2020_Dec_09_1423,hue_diff,2020.2.10,60.016912765542045,
images/pbg_bu_11.png,images/pbg_bu_0.png,161.0,down,18,9,279,11,,,down,1,1.602319700003136,raghav_b,001,2020_Dec_09_1423,hue_diff,2020.2.10,60.016912765542045,
images/pbg_bu_0.png,images/pbg_bu_0.png,150.0,up,18,10,280,0,,,a,0,2.2738802999956533,raghav_b,001,2020_Dec_09_1423,hue_diff,2020.2.10,60.016912765542045,
images/pbg_bu_13.png,images/pbg_bu_0.png,163.0,left,18,11,281,13,,,left,1,1.4459014999738429,raghav_b,001,2020_Dec_09_1423,hue_diff,2020.2.10,60.016912765542045,
images/pbg_bu_14.png,images/pbg_bu_0.png,164.0,up,18,12,282,14,,,up,1,1.4845679000136442,raghav_b,001,2020_Dec_09_1423,hue_diff,2020.2.10,60.016912765542045,
images/pbg_bu_10.png,images/pbg_bu_0.png,160.0,up,18,13,283,10,,,up,1,1.4168894999893382,raghav_b,001,2020_Dec_09_1423,hue_diff,2020.2.10,60.016912765542045,
images/pbg_bu_3.png,images/pbg_bu_0.png,153.0,right,18,14,284,3,,,right,1,1.5120343000162393,raghav_b,001,2020_Dec_09_1423,hue_diff,2020.2.10,60.016912765542045,
images/pbg_bu_13.png,images/pbg_bu_0.png,163.0,left,19,0,285,13,,,left,1,1.2453313000150956,raghav_b,001,2020_Dec_09_1423,hue_diff,2020.2.10,60.016912765542045,
images/pbg_bu_11.png,images/pbg_bu_0.png,161.0,down,19,1,286,11,,,down,1,1.1620238999894354,raghav_b,001,2020_Dec_09_1423,hue_diff,2020.2.10,60.016912765542045,
images/pbg_bu_4.png,images/pbg_bu_0.png,154.0,down,19,2,287,4,,,a,0,1.6718248999968637,raghav_b,001,2020_Dec_09_1423,hue_diff,2020.2.10,60.016912765542045,
images/pbg_bu_1.png,images/pbg_bu_0.png,151.0,right,19,3,288,1,,,a,0,1.481383200007258,raghav_b,001,2020_Dec_09_1423,hue_diff,2020.2.10,60.016912765542045,
images/pbg_bu_7.png,images/pbg_bu_0.png,157.0,left,19,4,289,7,,,left,1,1.5505033000081312,raghav_b,001,2020_Dec_09_1423,hue_diff,2020.2.10,60.016912765542045,
images/pbg_bu_9.png,images/pbg_bu_0.png,159.0,down,19,5,290,9,,,down,1,1.154865400021663,raghav_b,001,2020_Dec_09_1423,hue_diff,2020.2.10,60.016912765542045,
images/pbg_bu_3.png,images/pbg_bu_0.png,153.0,right,19,6,291,3,,,a,0,1.675057399988873,raghav_b,001,2020_Dec_09_1423,hue_diff,2020.2.10,60.016912765542045,
images/pbg_bu_5.png,images/pbg_bu_0.png,155.0,up,19,7,292,5,,,up,1,1.4424454999971204,raghav_b,001,2020_Dec_09_1423,hue_diff,2020.2.10,60.016912765542045,
images/pbg_bu_2.png,images/pbg_bu_0.png,152.0,right,19,8,293,2,,,a,0,3.0398126000072807,raghav_b,001,2020_Dec_09_1423,hue_diff,2020.2.10,60.016912765542045,
images/pbg_bu_14.png,images/pbg_bu_0.png,164.0,up,19,9,294,14,,,up,1,1.3841908999893349,raghav_b,001,2020_Dec_09_1423,hue_diff,2020.2.10,60.016912765542045,
images/pbg_bu_10.png,images/pbg_bu_0.png,160.0,up,19,10,295,10,,,up,1,1.4271062000188977,raghav_b,001,2020_Dec_09_1423,hue_diff,2020.2.10,60.016912765542045,
images/pbg_bu_6.png,images/pbg_bu_0.png,156.0,down,19,11,296,6,,,down,1,1.392079500015825,raghav_b,001,2020_Dec_09_1423,hue_diff,2020.2.10,60.016912765542045,
images/pbg_bu_12.png,images/pbg_bu_0.png,162.0,down,19,12,297,12,,,down,1,1.4154486999905203,raghav_b,001,2020_Dec_09_1423,hue_diff,2020.2.10,60.016912765542045,
images/pbg_bu_8.png,images/pbg_bu_0.png,158.0,left,19,13,298,8,,,left,1,1.3561810000101104,raghav_b,001,2020_Dec_09_1423,hue_diff,2020.2.10,60.016912765542045,
images/pbg_bu_0.png,images/pbg_bu_0.png,150.0,up,19,14,299,0,,,a,0,1.6753571000008378,raghav_b,001,2020_Dec_09_1423,hue_diff,2020.2.10,60.016912765542045,
