File,BGbase,Color_change,CorrAns,trials.thisRepN,trials.thisTrialN,trials.thisN,trials.thisIndex,key_resp.keys,key_resp.corr,key_resp.rt,participant,session,date,expName,psychopyVersion,frameRate,
images/pbg_ru_6.png,images/pbg_ru_0.png,156.0,down,0,0,0,6,a,0,3.744020999991335,raghav_r,001,2020_Dec_09_1442,hue_diff,2020.2.10,60.021055385845926,
images/pbg_ru_8.png,images/pbg_ru_0.png,158.0,down,0,1,1,8,down,1,1.2345886999974027,raghav_r,001,2020_Dec_09_1442,hue_diff,2020.2.10,60.021055385845926,
images/pbg_ru_14.png,images/pbg_ru_0.png,164.0,left,0,2,2,14,left,1,1.0482205000007525,raghav_r,001,2020_Dec_09_1442,hue_diff,2020.2.10,60.021055385845926,
images/pbg_ru_9.png,images/pbg_ru_0.png,159.0,up,0,3,3,9,up,1,4.87993640001514,raghav_r,001,2020_Dec_09_1442,hue_diff,2020.2.10,60.021055385845926,
images/pbg_ru_3.png,images/pbg_ru_0.png,153.0,down,0,4,4,3,a,0,3.004009099997347,raghav_r,001,2020_Dec_09_1442,hue_diff,2020.2.10,60.021055385845926,
images/pbg_ru_0.png,images/pbg_ru_0.png,150.0,up,0,5,5,0,a,0,1.9302786999905948,raghav_r,001,2020_Dec_09_1442,hue_diff,2020.2.10,60.021055385845926,
images/pbg_ru_13.png,images/pbg_ru_0.png,163.0,down,0,6,6,13,down,1,1.3980822000012267,raghav_r,001,2020_Dec_09_1442,hue_diff,2020.2.10,60.021055385845926,
images/pbg_ru_10.png,images/pbg_ru_0.png,160.0,down,0,7,7,10,down,1,1.4729217999847606,raghav_r,001,2020_Dec_09_1442,hue_diff,2020.2.10,60.021055385845926,
images/pbg_ru_7.png,images/pbg_ru_0.png,157.0,right,0,8,8,7,right,1,1.4865797000238672,raghav_r,001,2020_Dec_09_1442,hue_diff,2020.2.10,60.021055385845926,
images/pbg_ru_12.png,images/pbg_ru_0.png,162.0,down,0,9,9,12,down,1,1.405627000000095,raghav_r,001,2020_Dec_09_1442,hue_diff,2020.2.10,60.021055385845926,
images/pbg_ru_4.png,images/pbg_ru_0.png,154.0,up,0,10,10,4,a,0,2.667524800024694,raghav_r,001,2020_Dec_09_1442,hue_diff,2020.2.10,60.021055385845926,
images/pbg_ru_11.png,images/pbg_ru_0.png,161.0,down,0,11,11,11,down,1,1.446125500020571,raghav_r,001,2020_Dec_09_1442,hue_diff,2020.2.10,60.021055385845926,
images/pbg_ru_2.png,images/pbg_ru_0.png,152.0,right,0,12,12,2,a,0,1.9192081000073813,raghav_r,001,2020_Dec_09_1442,hue_diff,2020.2.10,60.021055385845926,
images/pbg_ru_5.png,images/pbg_ru_0.png,155.0,down,0,13,13,5,down,1,1.401121399976546,raghav_r,001,2020_Dec_09_1442,hue_diff,2020.2.10,60.021055385845926,
images/pbg_ru_1.png,images/pbg_ru_0.png,151.0,left,0,14,14,1,a,0,2.5281413000193425,raghav_r,001,2020_Dec_09_1442,hue_diff,2020.2.10,60.021055385845926,
images/pbg_ru_13.png,images/pbg_ru_0.png,163.0,down,1,0,15,13,down,1,1.365024300001096,raghav_r,001,2020_Dec_09_1442,hue_diff,2020.2.10,60.021055385845926,
images/pbg_ru_0.png,images/pbg_ru_0.png,150.0,up,1,1,16,0,a,0,3.3050564999866765,raghav_r,001,2020_Dec_09_1442,hue_diff,2020.2.10,60.021055385845926,
images/pbg_ru_10.png,images/pbg_ru_0.png,160.0,down,1,2,17,10,down,1,1.3788217999972403,raghav_r,001,2020_Dec_09_1442,hue_diff,2020.2.10,60.021055385845926,
images/pbg_ru_3.png,images/pbg_ru_0.png,153.0,down,1,3,18,3,a,0,1.812745500006713,raghav_r,001,2020_Dec_09_1442,hue_diff,2020.2.10,60.021055385845926,
images/pbg_ru_14.png,images/pbg_ru_0.png,164.0,left,1,4,19,14,left,1,1.331152500002645,raghav_r,001,2020_Dec_09_1442,hue_diff,2020.2.10,60.021055385845926,
images/pbg_ru_7.png,images/pbg_ru_0.png,157.0,right,1,5,20,7,right,1,1.181255900010001,raghav_r,001,2020_Dec_09_1442,hue_diff,2020.2.10,60.021055385845926,
images/pbg_ru_2.png,images/pbg_ru_0.png,152.0,right,1,6,21,2,a,0,2.019290700001875,raghav_r,001,2020_Dec_09_1442,hue_diff,2020.2.10,60.021055385845926,
images/pbg_ru_8.png,images/pbg_ru_0.png,158.0,down,1,7,22,8,down,1,1.2263076000090223,raghav_r,001,2020_Dec_09_1442,hue_diff,2020.2.10,60.021055385845926,
images/pbg_ru_12.png,images/pbg_ru_0.png,162.0,down,1,8,23,12,down,1,1.4690042000147514,raghav_r,001,2020_Dec_09_1442,hue_diff,2020.2.10,60.021055385845926,
images/pbg_ru_9.png,images/pbg_ru_0.png,159.0,up,1,9,24,9,up,1,1.425909200013848,raghav_r,001,2020_Dec_09_1442,hue_diff,2020.2.10,60.021055385845926,
images/pbg_ru_5.png,images/pbg_ru_0.png,155.0,down,1,10,25,5,down,1,1.1649335999973118,raghav_r,001,2020_Dec_09_1442,hue_diff,2020.2.10,60.021055385845926,
images/pbg_ru_11.png,images/pbg_ru_0.png,161.0,down,1,11,26,11,down,1,1.4147280000033788,raghav_r,001,2020_Dec_09_1442,hue_diff,2020.2.10,60.021055385845926,
images/pbg_ru_6.png,images/pbg_ru_0.png,156.0,down,1,12,27,6,down,1,1.4041200999927241,raghav_r,001,2020_Dec_09_1442,hue_diff,2020.2.10,60.021055385845926,
images/pbg_ru_4.png,images/pbg_ru_0.png,154.0,up,1,13,28,4,a,0,5.023925799992867,raghav_r,001,2020_Dec_09_1442,hue_diff,2020.2.10,60.021055385845926,
images/pbg_ru_1.png,images/pbg_ru_0.png,151.0,left,1,14,29,1,a,0,2.089784800016787,raghav_r,001,2020_Dec_09_1442,hue_diff,2020.2.10,60.021055385845926,
images/pbg_ru_13.png,images/pbg_ru_0.png,163.0,down,2,0,30,13,down,1,1.4129907000169624,raghav_r,001,2020_Dec_09_1442,hue_diff,2020.2.10,60.021055385845926,
images/pbg_ru_6.png,images/pbg_ru_0.png,156.0,down,2,1,31,6,down,1,1.5207989999908023,raghav_r,001,2020_Dec_09_1442,hue_diff,2020.2.10,60.021055385845926,
images/pbg_ru_8.png,images/pbg_ru_0.png,158.0,down,2,2,32,8,down,1,1.4601461999991443,raghav_r,001,2020_Dec_09_1442,hue_diff,2020.2.10,60.021055385845926,
images/pbg_ru_2.png,images/pbg_ru_0.png,152.0,right,2,3,33,2,a,0,1.7772345999837853,raghav_r,001,2020_Dec_09_1442,hue_diff,2020.2.10,60.021055385845926,
images/pbg_ru_7.png,images/pbg_ru_0.png,157.0,right,2,4,34,7,right,1,1.4785367000149563,raghav_r,001,2020_Dec_09_1442,hue_diff,2020.2.10,60.021055385845926,
images/pbg_ru_10.png,images/pbg_ru_0.png,160.0,down,2,5,35,10,down,1,1.3707723999978043,raghav_r,001,2020_Dec_09_1442,hue_diff,2020.2.10,60.021055385845926,
images/pbg_ru_4.png,images/pbg_ru_0.png,154.0,up,2,6,36,4,a,0,1.6449926999921445,raghav_r,001,2020_Dec_09_1442,hue_diff,2020.2.10,60.021055385845926,
images/pbg_ru_3.png,images/pbg_ru_0.png,153.0,down,2,7,37,3,down,1,1.4000067000160925,raghav_r,001,2020_Dec_09_1442,hue_diff,2020.2.10,60.021055385845926,
images/pbg_ru_9.png,images/pbg_ru_0.png,159.0,up,2,8,38,9,up,1,1.5709446000109892,raghav_r,001,2020_Dec_09_1442,hue_diff,2020.2.10,60.021055385845926,
images/pbg_ru_1.png,images/pbg_ru_0.png,151.0,left,2,9,39,1,a,0,2.413492199993925,raghav_r,001,2020_Dec_09_1442,hue_diff,2020.2.10,60.021055385845926,
images/pbg_ru_0.png,images/pbg_ru_0.png,150.0,up,2,10,40,0,a,0,1.7473567000124604,raghav_r,001,2020_Dec_09_1442,hue_diff,2020.2.10,60.021055385845926,
images/pbg_ru_14.png,images/pbg_ru_0.png,164.0,left,2,11,41,14,left,1,1.3733212999941316,raghav_r,001,2020_Dec_09_1442,hue_diff,2020.2.10,60.021055385845926,
images/pbg_ru_5.png,images/pbg_ru_0.png,155.0,down,2,12,42,5,down,1,1.3858580999949481,raghav_r,001,2020_Dec_09_1442,hue_diff,2020.2.10,60.021055385845926,
images/pbg_ru_12.png,images/pbg_ru_0.png,162.0,down,2,13,43,12,down,1,1.3252599000115879,raghav_r,001,2020_Dec_09_1442,hue_diff,2020.2.10,60.021055385845926,
images/pbg_ru_11.png,images/pbg_ru_0.png,161.0,down,2,14,44,11,down,1,1.4201120000216179,raghav_r,001,2020_Dec_09_1442,hue_diff,2020.2.10,60.021055385845926,
images/pbg_ru_14.png,images/pbg_ru_0.png,164.0,left,3,0,45,14,left,1,1.4324274999962654,raghav_r,001,2020_Dec_09_1442,hue_diff,2020.2.10,60.021055385845926,
images/pbg_ru_11.png,images/pbg_ru_0.png,161.0,down,3,1,46,11,down,1,1.2983315000019502,raghav_r,001,2020_Dec_09_1442,hue_diff,2020.2.10,60.021055385845926,
images/pbg_ru_10.png,images/pbg_ru_0.png,160.0,down,3,2,47,10,down,1,1.3636335000046529,raghav_r,001,2020_Dec_09_1442,hue_diff,2020.2.10,60.021055385845926,
images/pbg_ru_3.png,images/pbg_ru_0.png,153.0,down,3,3,48,3,down,1,1.334448000008706,raghav_r,001,2020_Dec_09_1442,hue_diff,2020.2.10,60.021055385845926,
images/pbg_ru_13.png,images/pbg_ru_0.png,163.0,down,3,4,49,13,down,1,1.2479996999900322,raghav_r,001,2020_Dec_09_1442,hue_diff,2020.2.10,60.021055385845926,
images/pbg_ru_12.png,images/pbg_ru_0.png,162.0,down,3,5,50,12,down,1,1.2183694000123069,raghav_r,001,2020_Dec_09_1442,hue_diff,2020.2.10,60.021055385845926,
images/pbg_ru_6.png,images/pbg_ru_0.png,156.0,down,3,6,51,6,down,1,1.3516228999942541,raghav_r,001,2020_Dec_09_1442,hue_diff,2020.2.10,60.021055385845926,
images/pbg_ru_2.png,images/pbg_ru_0.png,152.0,right,3,7,52,2,a,0,1.4394754000240937,raghav_r,001,2020_Dec_09_1442,hue_diff,2020.2.10,60.021055385845926,
images/pbg_ru_7.png,images/pbg_ru_0.png,157.0,right,3,8,53,7,right,1,1.2423236000176985,raghav_r,001,2020_Dec_09_1442,hue_diff,2020.2.10,60.021055385845926,
images/pbg_ru_9.png,images/pbg_ru_0.png,159.0,up,3,9,54,9,up,1,1.3284346000000369,raghav_r,001,2020_Dec_09_1442,hue_diff,2020.2.10,60.021055385845926,
images/pbg_ru_1.png,images/pbg_ru_0.png,151.0,left,3,10,55,1,a,0,2.7137693999975454,raghav_r,001,2020_Dec_09_1442,hue_diff,2020.2.10,60.021055385845926,
images/pbg_ru_4.png,images/pbg_ru_0.png,154.0,up,3,11,56,4,a,0,1.958295399992494,raghav_r,001,2020_Dec_09_1442,hue_diff,2020.2.10,60.021055385845926,
images/pbg_ru_5.png,images/pbg_ru_0.png,155.0,down,3,12,57,5,down,1,1.3653135000204202,raghav_r,001,2020_Dec_09_1442,hue_diff,2020.2.10,60.021055385845926,
images/pbg_ru_0.png,images/pbg_ru_0.png,150.0,up,3,13,58,0,a,0,1.6371846999973059,raghav_r,001,2020_Dec_09_1442,hue_diff,2020.2.10,60.021055385845926,
images/pbg_ru_8.png,images/pbg_ru_0.png,158.0,down,3,14,59,8,down,1,1.3761445999844,raghav_r,001,2020_Dec_09_1442,hue_diff,2020.2.10,60.021055385845926,
images/pbg_ru_9.png,images/pbg_ru_0.png,159.0,up,4,0,60,9,up,1,1.3950845999934245,raghav_r,001,2020_Dec_09_1442,hue_diff,2020.2.10,60.021055385845926,
images/pbg_ru_6.png,images/pbg_ru_0.png,156.0,down,4,1,61,6,down,1,1.2776154000021052,raghav_r,001,2020_Dec_09_1442,hue_diff,2020.2.10,60.021055385845926,
images/pbg_ru_14.png,images/pbg_ru_0.png,164.0,left,4,2,62,14,left,1,1.2483629999915138,raghav_r,001,2020_Dec_09_1442,hue_diff,2020.2.10,60.021055385845926,
images/pbg_ru_11.png,images/pbg_ru_0.png,161.0,down,4,3,63,11,down,1,1.2530278000049293,raghav_r,001,2020_Dec_09_1442,hue_diff,2020.2.10,60.021055385845926,
images/pbg_ru_5.png,images/pbg_ru_0.png,155.0,down,4,4,64,5,down,1,1.122722000000067,raghav_r,001,2020_Dec_09_1442,hue_diff,2020.2.10,60.021055385845926,
images/pbg_ru_12.png,images/pbg_ru_0.png,162.0,down,4,5,65,12,down,1,1.377922599989688,raghav_r,001,2020_Dec_09_1442,hue_diff,2020.2.10,60.021055385845926,
images/pbg_ru_0.png,images/pbg_ru_0.png,150.0,up,4,6,66,0,a,0,1.5861283999984153,raghav_r,001,2020_Dec_09_1442,hue_diff,2020.2.10,60.021055385845926,
images/pbg_ru_7.png,images/pbg_ru_0.png,157.0,right,4,7,67,7,right,1,1.382503100001486,raghav_r,001,2020_Dec_09_1442,hue_diff,2020.2.10,60.021055385845926,
images/pbg_ru_2.png,images/pbg_ru_0.png,152.0,right,4,8,68,2,a,0,2.529234899993753,raghav_r,001,2020_Dec_09_1442,hue_diff,2020.2.10,60.021055385845926,
images/pbg_ru_1.png,images/pbg_ru_0.png,151.0,left,4,9,69,1,a,0,1.5237294999824371,raghav_r,001,2020_Dec_09_1442,hue_diff,2020.2.10,60.021055385845926,
images/pbg_ru_10.png,images/pbg_ru_0.png,160.0,down,4,10,70,10,down,1,1.2931165999907535,raghav_r,001,2020_Dec_09_1442,hue_diff,2020.2.10,60.021055385845926,
images/pbg_ru_3.png,images/pbg_ru_0.png,153.0,down,4,11,71,3,down,1,1.7643171999952756,raghav_r,001,2020_Dec_09_1442,hue_diff,2020.2.10,60.021055385845926,
images/pbg_ru_8.png,images/pbg_ru_0.png,158.0,down,4,12,72,8,down,1,1.3325561999808997,raghav_r,001,2020_Dec_09_1442,hue_diff,2020.2.10,60.021055385845926,
images/pbg_ru_4.png,images/pbg_ru_0.png,154.0,up,4,13,73,4,a,0,1.4550025000062305,raghav_r,001,2020_Dec_09_1442,hue_diff,2020.2.10,60.021055385845926,
images/pbg_ru_13.png,images/pbg_ru_0.png,163.0,down,4,14,74,13,down,1,1.2718902000051457,raghav_r,001,2020_Dec_09_1442,hue_diff,2020.2.10,60.021055385845926,
images/pbg_ru_0.png,images/pbg_ru_0.png,150.0,up,5,0,75,0,a,0,1.919393799995305,raghav_r,001,2020_Dec_09_1442,hue_diff,2020.2.10,60.021055385845926,
images/pbg_ru_6.png,images/pbg_ru_0.png,156.0,down,5,1,76,6,down,1,1.296717000019271,raghav_r,001,2020_Dec_09_1442,hue_diff,2020.2.10,60.021055385845926,
images/pbg_ru_9.png,images/pbg_ru_0.png,159.0,up,5,2,77,9,up,1,1.2586287999874912,raghav_r,001,2020_Dec_09_1442,hue_diff,2020.2.10,60.021055385845926,
images/pbg_ru_11.png,images/pbg_ru_0.png,161.0,down,5,3,78,11,down,1,1.2872843999939505,raghav_r,001,2020_Dec_09_1442,hue_diff,2020.2.10,60.021055385845926,
images/pbg_ru_3.png,images/pbg_ru_0.png,153.0,down,5,4,79,3,a,0,3.114848400000483,raghav_r,001,2020_Dec_09_1442,hue_diff,2020.2.10,60.021055385845926,
images/pbg_ru_5.png,images/pbg_ru_0.png,155.0,down,5,5,80,5,down,1,1.302057299995795,raghav_r,001,2020_Dec_09_1442,hue_diff,2020.2.10,60.021055385845926,
images/pbg_ru_1.png,images/pbg_ru_0.png,151.0,left,5,6,81,1,a,0,1.596274200011976,raghav_r,001,2020_Dec_09_1442,hue_diff,2020.2.10,60.021055385845926,
images/pbg_ru_10.png,images/pbg_ru_0.png,160.0,down,5,7,82,10,down,1,1.2455216999805998,raghav_r,001,2020_Dec_09_1442,hue_diff,2020.2.10,60.021055385845926,
images/pbg_ru_14.png,images/pbg_ru_0.png,164.0,left,5,8,83,14,left,1,1.3083736000116915,raghav_r,001,2020_Dec_09_1442,hue_diff,2020.2.10,60.021055385845926,
images/pbg_ru_2.png,images/pbg_ru_0.png,152.0,right,5,9,84,2,a,0,1.546674899989739,raghav_r,001,2020_Dec_09_1442,hue_diff,2020.2.10,60.021055385845926,
images/pbg_ru_4.png,images/pbg_ru_0.png,154.0,up,5,10,85,4,up,1,1.421107200003462,raghav_r,001,2020_Dec_09_1442,hue_diff,2020.2.10,60.021055385845926,
images/pbg_ru_13.png,images/pbg_ru_0.png,163.0,down,5,11,86,13,down,1,1.3109225000080187,raghav_r,001,2020_Dec_09_1442,hue_diff,2020.2.10,60.021055385845926,
images/pbg_ru_7.png,images/pbg_ru_0.png,157.0,right,5,12,87,7,right,1,1.4114820999966469,raghav_r,001,2020_Dec_09_1442,hue_diff,2020.2.10,60.021055385845926,
images/pbg_ru_12.png,images/pbg_ru_0.png,162.0,down,5,13,88,12,down,1,1.3153636000060942,raghav_r,001,2020_Dec_09_1442,hue_diff,2020.2.10,60.021055385845926,
images/pbg_ru_8.png,images/pbg_ru_0.png,158.0,down,5,14,89,8,down,1,1.2610449999920093,raghav_r,001,2020_Dec_09_1442,hue_diff,2020.2.10,60.021055385845926,
images/pbg_ru_6.png,images/pbg_ru_0.png,156.0,down,6,0,90,6,down,1,1.4775345000089146,raghav_r,001,2020_Dec_09_1442,hue_diff,2020.2.10,60.021055385845926,
images/pbg_ru_12.png,images/pbg_ru_0.png,162.0,down,6,1,91,12,down,1,1.304935199994361,raghav_r,001,2020_Dec_09_1442,hue_diff,2020.2.10,60.021055385845926,
images/pbg_ru_5.png,images/pbg_ru_0.png,155.0,down,6,2,92,5,down,1,1.433981500013033,raghav_r,001,2020_Dec_09_1442,hue_diff,2020.2.10,60.021055385845926,
images/pbg_ru_9.png,images/pbg_ru_0.png,159.0,up,6,3,93,9,up,1,1.5727652000205126,raghav_r,001,2020_Dec_09_1442,hue_diff,2020.2.10,60.021055385845926,
images/pbg_ru_1.png,images/pbg_ru_0.png,151.0,left,6,4,94,1,a,0,1.8190574999898672,raghav_r,001,2020_Dec_09_1442,hue_diff,2020.2.10,60.021055385845926,
images/pbg_ru_14.png,images/pbg_ru_0.png,164.0,left,6,5,95,14,left,1,1.3123439000046346,raghav_r,001,2020_Dec_09_1442,hue_diff,2020.2.10,60.021055385845926,
images/pbg_ru_10.png,images/pbg_ru_0.png,160.0,down,6,6,96,10,down,1,1.4268733000208158,raghav_r,001,2020_Dec_09_1442,hue_diff,2020.2.10,60.021055385845926,
images/pbg_ru_4.png,images/pbg_ru_0.png,154.0,up,6,7,97,4,up,1,1.5336378999927547,raghav_r,001,2020_Dec_09_1442,hue_diff,2020.2.10,60.021055385845926,
images/pbg_ru_11.png,images/pbg_ru_0.png,161.0,down,6,8,98,11,down,1,1.4360849999939092,raghav_r,001,2020_Dec_09_1442,hue_diff,2020.2.10,60.021055385845926,
images/pbg_ru_13.png,images/pbg_ru_0.png,163.0,down,6,9,99,13,down,1,1.3792717999895103,raghav_r,001,2020_Dec_09_1442,hue_diff,2020.2.10,60.021055385845926,
images/pbg_ru_7.png,images/pbg_ru_0.png,157.0,right,6,10,100,7,right,1,1.4070592999923974,raghav_r,001,2020_Dec_09_1442,hue_diff,2020.2.10,60.021055385845926,
images/pbg_ru_8.png,images/pbg_ru_0.png,158.0,down,6,11,101,8,down,1,1.3892507999844383,raghav_r,001,2020_Dec_09_1442,hue_diff,2020.2.10,60.021055385845926,
images/pbg_ru_3.png,images/pbg_ru_0.png,153.0,down,6,12,102,3,a,0,1.8709484999999404,raghav_r,001,2020_Dec_09_1442,hue_diff,2020.2.10,60.021055385845926,
images/pbg_ru_0.png,images/pbg_ru_0.png,150.0,up,6,13,103,0,a,0,1.7725207000039518,raghav_r,001,2020_Dec_09_1442,hue_diff,2020.2.10,60.021055385845926,
images/pbg_ru_2.png,images/pbg_ru_0.png,152.0,right,6,14,104,2,a,0,1.8342742000240833,raghav_r,001,2020_Dec_09_1442,hue_diff,2020.2.10,60.021055385845926,
images/pbg_ru_1.png,images/pbg_ru_0.png,151.0,left,7,0,105,1,a,0,1.8794035999744665,raghav_r,001,2020_Dec_09_1442,hue_diff,2020.2.10,60.021055385845926,
images/pbg_ru_10.png,images/pbg_ru_0.png,160.0,down,7,1,106,10,down,1,1.3648129999928642,raghav_r,001,2020_Dec_09_1442,hue_diff,2020.2.10,60.021055385845926,
images/pbg_ru_5.png,images/pbg_ru_0.png,155.0,down,7,2,107,5,down,1,1.4234066999924835,raghav_r,001,2020_Dec_09_1442,hue_diff,2020.2.10,60.021055385845926,
images/pbg_ru_9.png,images/pbg_ru_0.png,159.0,up,7,3,108,9,up,1,1.4375662000093143,raghav_r,001,2020_Dec_09_1442,hue_diff,2020.2.10,60.021055385845926,
images/pbg_ru_0.png,images/pbg_ru_0.png,150.0,up,7,4,109,0,a,0,1.6178650000074413,raghav_r,001,2020_Dec_09_1442,hue_diff,2020.2.10,60.021055385845926,
images/pbg_ru_2.png,images/pbg_ru_0.png,152.0,right,7,5,110,2,a,0,1.9108826000010595,raghav_r,001,2020_Dec_09_1442,hue_diff,2020.2.10,60.021055385845926,
images/pbg_ru_11.png,images/pbg_ru_0.png,161.0,down,7,6,111,11,down,1,1.4913519000110682,raghav_r,001,2020_Dec_09_1442,hue_diff,2020.2.10,60.021055385845926,
images/pbg_ru_7.png,images/pbg_ru_0.png,157.0,right,7,7,112,7,right,1,1.510277599998517,raghav_r,001,2020_Dec_09_1442,hue_diff,2020.2.10,60.021055385845926,
images/pbg_ru_13.png,images/pbg_ru_0.png,163.0,down,7,8,113,13,down,1,1.4426543000154197,raghav_r,001,2020_Dec_09_1442,hue_diff,2020.2.10,60.021055385845926,
images/pbg_ru_6.png,images/pbg_ru_0.png,156.0,down,7,9,114,6,down,1,1.1755638999748044,raghav_r,001,2020_Dec_09_1442,hue_diff,2020.2.10,60.021055385845926,
images/pbg_ru_3.png,images/pbg_ru_0.png,153.0,down,7,10,115,3,a,0,1.7240487999806646,raghav_r,001,2020_Dec_09_1442,hue_diff,2020.2.10,60.021055385845926,
images/pbg_ru_12.png,images/pbg_ru_0.png,162.0,down,7,11,116,12,down,1,1.316781200002879,raghav_r,001,2020_Dec_09_1442,hue_diff,2020.2.10,60.021055385845926,
images/pbg_ru_8.png,images/pbg_ru_0.png,158.0,down,7,12,117,8,down,1,1.4921317000116687,raghav_r,001,2020_Dec_09_1442,hue_diff,2020.2.10,60.021055385845926,
images/pbg_ru_14.png,images/pbg_ru_0.png,164.0,left,7,13,118,14,left,1,1.469205300003523,raghav_r,001,2020_Dec_09_1442,hue_diff,2020.2.10,60.021055385845926,
images/pbg_ru_4.png,images/pbg_ru_0.png,154.0,up,7,14,119,4,up,1,1.4624775999982376,raghav_r,001,2020_Dec_09_1442,hue_diff,2020.2.10,60.021055385845926,
images/pbg_ru_4.png,images/pbg_ru_0.png,154.0,up,8,0,120,4,up,1,1.4894804000214208,raghav_r,001,2020_Dec_09_1442,hue_diff,2020.2.10,60.021055385845926,
images/pbg_ru_8.png,images/pbg_ru_0.png,158.0,down,8,1,121,8,down,1,1.4182227000128478,raghav_r,001,2020_Dec_09_1442,hue_diff,2020.2.10,60.021055385845926,
images/pbg_ru_12.png,images/pbg_ru_0.png,162.0,down,8,2,122,12,down,1,1.3656880999915302,raghav_r,001,2020_Dec_09_1442,hue_diff,2020.2.10,60.021055385845926,
images/pbg_ru_7.png,images/pbg_ru_0.png,157.0,right,8,3,123,7,right,1,1.4047714000043925,raghav_r,001,2020_Dec_09_1442,hue_diff,2020.2.10,60.021055385845926,
images/pbg_ru_9.png,images/pbg_ru_0.png,159.0,up,8,4,124,9,up,1,1.3958328000153415,raghav_r,001,2020_Dec_09_1442,hue_diff,2020.2.10,60.021055385845926,
images/pbg_ru_5.png,images/pbg_ru_0.png,155.0,down,8,5,125,5,down,1,1.3294584000250325,raghav_r,001,2020_Dec_09_1442,hue_diff,2020.2.10,60.021055385845926,
images/pbg_ru_14.png,images/pbg_ru_0.png,164.0,left,8,6,126,14,left,1,1.3054768000147305,raghav_r,001,2020_Dec_09_1442,hue_diff,2020.2.10,60.021055385845926,
images/pbg_ru_1.png,images/pbg_ru_0.png,151.0,left,8,7,127,1,a,0,1.8406434999778867,raghav_r,001,2020_Dec_09_1442,hue_diff,2020.2.10,60.021055385845926,
images/pbg_ru_10.png,images/pbg_ru_0.png,160.0,down,8,8,128,10,down,1,1.4271357999823522,raghav_r,001,2020_Dec_09_1442,hue_diff,2020.2.10,60.021055385845926,
images/pbg_ru_3.png,images/pbg_ru_0.png,153.0,down,8,9,129,3,a,0,2.2076001000241376,raghav_r,001,2020_Dec_09_1442,hue_diff,2020.2.10,60.021055385845926,
images/pbg_ru_6.png,images/pbg_ru_0.png,156.0,down,8,10,130,6,down,1,1.4085194999934174,raghav_r,001,2020_Dec_09_1442,hue_diff,2020.2.10,60.021055385845926,
images/pbg_ru_11.png,images/pbg_ru_0.png,161.0,down,8,11,131,11,down,1,1.3699618999962695,raghav_r,001,2020_Dec_09_1442,hue_diff,2020.2.10,60.021055385845926,
images/pbg_ru_0.png,images/pbg_ru_0.png,150.0,up,8,12,132,0,a,0,1.9836082000110764,raghav_r,001,2020_Dec_09_1442,hue_diff,2020.2.10,60.021055385845926,
images/pbg_ru_2.png,images/pbg_ru_0.png,152.0,right,8,13,133,2,a,0,2.4797327000123914,raghav_r,001,2020_Dec_09_1442,hue_diff,2020.2.10,60.021055385845926,
images/pbg_ru_13.png,images/pbg_ru_0.png,163.0,down,8,14,134,13,down,1,1.2930719000287354,raghav_r,001,2020_Dec_09_1442,hue_diff,2020.2.10,60.021055385845926,
images/pbg_ru_7.png,images/pbg_ru_0.png,157.0,right,9,0,135,7,right,1,1.3978064999973867,raghav_r,001,2020_Dec_09_1442,hue_diff,2020.2.10,60.021055385845926,
images/pbg_ru_8.png,images/pbg_ru_0.png,158.0,down,9,1,136,8,down,1,1.351471899979515,raghav_r,001,2020_Dec_09_1442,hue_diff,2020.2.10,60.021055385845926,
images/pbg_ru_12.png,images/pbg_ru_0.png,162.0,down,9,2,137,12,down,1,1.3168793999939226,raghav_r,001,2020_Dec_09_1442,hue_diff,2020.2.10,60.021055385845926,
images/pbg_ru_0.png,images/pbg_ru_0.png,150.0,up,9,3,138,0,a,0,1.9279567999765277,raghav_r,001,2020_Dec_09_1442,hue_diff,2020.2.10,60.021055385845926,
images/pbg_ru_10.png,images/pbg_ru_0.png,160.0,down,9,4,139,10,down,1,1.3732568999985233,raghav_r,001,2020_Dec_09_1442,hue_diff,2020.2.10,60.021055385845926,
images/pbg_ru_3.png,images/pbg_ru_0.png,153.0,down,9,5,140,3,a,0,7.246801300003426,raghav_r,001,2020_Dec_09_1442,hue_diff,2020.2.10,60.021055385845926,
images/pbg_ru_2.png,images/pbg_ru_0.png,152.0,right,9,6,141,2,a,0,1.8236104999959935,raghav_r,001,2020_Dec_09_1442,hue_diff,2020.2.10,60.021055385845926,
images/pbg_ru_13.png,images/pbg_ru_0.png,163.0,down,9,7,142,13,down,1,1.08724500000244,raghav_r,001,2020_Dec_09_1442,hue_diff,2020.2.10,60.021055385845926,
images/pbg_ru_6.png,images/pbg_ru_0.png,156.0,down,9,8,143,6,down,1,1.203536000015447,raghav_r,001,2020_Dec_09_1442,hue_diff,2020.2.10,60.021055385845926,
images/pbg_ru_9.png,images/pbg_ru_0.png,159.0,up,9,9,144,9,up,1,1.726022799994098,raghav_r,001,2020_Dec_09_1442,hue_diff,2020.2.10,60.021055385845926,
images/pbg_ru_5.png,images/pbg_ru_0.png,155.0,down,9,10,145,5,a,0,1.6919465999817476,raghav_r,001,2020_Dec_09_1442,hue_diff,2020.2.10,60.021055385845926,
images/pbg_ru_14.png,images/pbg_ru_0.png,164.0,left,9,11,146,14,left,1,1.4112120000063442,raghav_r,001,2020_Dec_09_1442,hue_diff,2020.2.10,60.021055385845926,
images/pbg_ru_1.png,images/pbg_ru_0.png,151.0,left,9,12,147,1,a,0,1.7433289000182413,raghav_r,001,2020_Dec_09_1442,hue_diff,2020.2.10,60.021055385845926,
images/pbg_ru_11.png,images/pbg_ru_0.png,161.0,down,9,13,148,11,down,1,1.4286312000185717,raghav_r,001,2020_Dec_09_1442,hue_diff,2020.2.10,60.021055385845926,
images/pbg_ru_4.png,images/pbg_ru_0.png,154.0,up,9,14,149,4,a,0,1.682722899975488,raghav_r,001,2020_Dec_09_1442,hue_diff,2020.2.10,60.021055385845926,
images/pbg_ru_4.png,images/pbg_ru_0.png,154.0,up,10,0,150,4,up,1,1.4924375000118744,raghav_r,001,2020_Dec_09_1442,hue_diff,2020.2.10,60.021055385845926,
images/pbg_ru_12.png,images/pbg_ru_0.png,162.0,down,10,1,151,12,down,1,1.4526487999828532,raghav_r,001,2020_Dec_09_1442,hue_diff,2020.2.10,60.021055385845926,
images/pbg_ru_14.png,images/pbg_ru_0.png,164.0,left,10,2,152,14,left,1,1.4076319999876432,raghav_r,001,2020_Dec_09_1442,hue_diff,2020.2.10,60.021055385845926,
images/pbg_ru_2.png,images/pbg_ru_0.png,152.0,right,10,3,153,2,a,0,1.686943999986397,raghav_r,001,2020_Dec_09_1442,hue_diff,2020.2.10,60.021055385845926,
images/pbg_ru_5.png,images/pbg_ru_0.png,155.0,down,10,4,154,5,down,1,1.5033223000064027,raghav_r,001,2020_Dec_09_1442,hue_diff,2020.2.10,60.021055385845926,
images/pbg_ru_3.png,images/pbg_ru_0.png,153.0,down,10,5,155,3,a,0,2.4972034000093117,raghav_r,001,2020_Dec_09_1442,hue_diff,2020.2.10,60.021055385845926,
images/pbg_ru_6.png,images/pbg_ru_0.png,156.0,down,10,6,156,6,down,1,1.3715663000184577,raghav_r,001,2020_Dec_09_1442,hue_diff,2020.2.10,60.021055385845926,
images/pbg_ru_7.png,images/pbg_ru_0.png,157.0,right,10,7,157,7,right,1,1.4269375999865588,raghav_r,001,2020_Dec_09_1442,hue_diff,2020.2.10,60.021055385845926,
images/pbg_ru_1.png,images/pbg_ru_0.png,151.0,left,10,8,158,1,a,0,1.9613028000167105,raghav_r,001,2020_Dec_09_1442,hue_diff,2020.2.10,60.021055385845926,
images/pbg_ru_8.png,images/pbg_ru_0.png,158.0,down,10,9,159,8,down,1,1.3508588999975473,raghav_r,001,2020_Dec_09_1442,hue_diff,2020.2.10,60.021055385845926,
images/pbg_ru_9.png,images/pbg_ru_0.png,159.0,up,10,10,160,9,up,1,1.473688800004311,raghav_r,001,2020_Dec_09_1442,hue_diff,2020.2.10,60.021055385845926,
images/pbg_ru_0.png,images/pbg_ru_0.png,150.0,up,10,11,161,0,a,0,1.583457200002158,raghav_r,001,2020_Dec_09_1442,hue_diff,2020.2.10,60.021055385845926,
images/pbg_ru_11.png,images/pbg_ru_0.png,161.0,down,10,12,162,11,down,1,1.3249209999921732,raghav_r,001,2020_Dec_09_1442,hue_diff,2020.2.10,60.021055385845926,
images/pbg_ru_13.png,images/pbg_ru_0.png,163.0,down,10,13,163,13,down,1,1.4611296999792103,raghav_r,001,2020_Dec_09_1442,hue_diff,2020.2.10,60.021055385845926,
images/pbg_ru_10.png,images/pbg_ru_0.png,160.0,down,10,14,164,10,down,1,1.4396311000164133,raghav_r,001,2020_Dec_09_1442,hue_diff,2020.2.10,60.021055385845926,
images/pbg_ru_5.png,images/pbg_ru_0.png,155.0,down,11,0,165,5,a,0,1.5255860000033863,raghav_r,001,2020_Dec_09_1442,hue_diff,2020.2.10,60.021055385845926,
images/pbg_ru_12.png,images/pbg_ru_0.png,162.0,down,11,1,166,12,down,1,1.4096757000079378,raghav_r,001,2020_Dec_09_1442,hue_diff,2020.2.10,60.021055385845926,
images/pbg_ru_8.png,images/pbg_ru_0.png,158.0,down,11,2,167,8,down,1,1.3392552999721374,raghav_r,001,2020_Dec_09_1442,hue_diff,2020.2.10,60.021055385845926,
images/pbg_ru_4.png,images/pbg_ru_0.png,154.0,up,11,3,168,4,a,0,1.6513318000070285,raghav_r,001,2020_Dec_09_1442,hue_diff,2020.2.10,60.021055385845926,
images/pbg_ru_3.png,images/pbg_ru_0.png,153.0,down,11,4,169,3,down,1,1.5733661999984179,raghav_r,001,2020_Dec_09_1442,hue_diff,2020.2.10,60.021055385845926,
images/pbg_ru_11.png,images/pbg_ru_0.png,161.0,down,11,5,170,11,down,1,1.5308256999996956,raghav_r,001,2020_Dec_09_1442,hue_diff,2020.2.10,60.021055385845926,
images/pbg_ru_14.png,images/pbg_ru_0.png,164.0,left,11,6,171,14,left,1,1.4468695000105072,raghav_r,001,2020_Dec_09_1442,hue_diff,2020.2.10,60.021055385845926,
images/pbg_ru_13.png,images/pbg_ru_0.png,163.0,down,11,7,172,13,down,1,1.4186995000054594,raghav_r,001,2020_Dec_09_1442,hue_diff,2020.2.10,60.021055385845926,
images/pbg_ru_7.png,images/pbg_ru_0.png,157.0,right,11,8,173,7,right,1,1.2107281000062358,raghav_r,001,2020_Dec_09_1442,hue_diff,2020.2.10,60.021055385845926,
images/pbg_ru_10.png,images/pbg_ru_0.png,160.0,down,11,9,174,10,down,1,1.4425227000028826,raghav_r,001,2020_Dec_09_1442,hue_diff,2020.2.10,60.021055385845926,
images/pbg_ru_2.png,images/pbg_ru_0.png,152.0,right,11,10,175,2,a,0,1.7812737000058405,raghav_r,001,2020_Dec_09_1442,hue_diff,2020.2.10,60.021055385845926,
images/pbg_ru_6.png,images/pbg_ru_0.png,156.0,down,11,11,176,6,down,1,1.3883734999981243,raghav_r,001,2020_Dec_09_1442,hue_diff,2020.2.10,60.021055385845926,
images/pbg_ru_1.png,images/pbg_ru_0.png,151.0,left,11,12,177,1,a,0,1.4576158999989275,raghav_r,001,2020_Dec_09_1442,hue_diff,2020.2.10,60.021055385845926,
images/pbg_ru_0.png,images/pbg_ru_0.png,150.0,up,11,13,178,0,a,0,4.886369099986041,raghav_r,001,2020_Dec_09_1442,hue_diff,2020.2.10,60.021055385845926,
images/pbg_ru_9.png,images/pbg_ru_0.png,159.0,up,11,14,179,9,up,1,1.3569626999960747,raghav_r,001,2020_Dec_09_1442,hue_diff,2020.2.10,60.021055385845926,
images/pbg_ru_5.png,images/pbg_ru_0.png,155.0,down,12,0,180,5,down,1,1.3893051999912132,raghav_r,001,2020_Dec_09_1442,hue_diff,2020.2.10,60.021055385845926,
images/pbg_ru_11.png,images/pbg_ru_0.png,161.0,down,12,1,181,11,down,1,1.5241303000075277,raghav_r,001,2020_Dec_09_1442,hue_diff,2020.2.10,60.021055385845926,
images/pbg_ru_14.png,images/pbg_ru_0.png,164.0,left,12,2,182,14,left,1,1.337255999998888,raghav_r,001,2020_Dec_09_1442,hue_diff,2020.2.10,60.021055385845926,
images/pbg_ru_12.png,images/pbg_ru_0.png,162.0,down,12,3,183,12,down,1,1.4487471999891568,raghav_r,001,2020_Dec_09_1442,hue_diff,2020.2.10,60.021055385845926,
images/pbg_ru_13.png,images/pbg_ru_0.png,163.0,down,12,4,184,13,down,1,1.4097971999726724,raghav_r,001,2020_Dec_09_1442,hue_diff,2020.2.10,60.021055385845926,
images/pbg_ru_8.png,images/pbg_ru_0.png,158.0,down,12,5,185,8,down,1,1.4091474000015296,raghav_r,001,2020_Dec_09_1442,hue_diff,2020.2.10,60.021055385845926,
images/pbg_ru_7.png,images/pbg_ru_0.png,157.0,right,12,6,186,7,right,1,1.4405667000100948,raghav_r,001,2020_Dec_09_1442,hue_diff,2020.2.10,60.021055385845926,
images/pbg_ru_6.png,images/pbg_ru_0.png,156.0,down,12,7,187,6,down,1,1.4675238999770954,raghav_r,001,2020_Dec_09_1442,hue_diff,2020.2.10,60.021055385845926,
images/pbg_ru_1.png,images/pbg_ru_0.png,151.0,left,12,8,188,1,a,0,1.9798943000205327,raghav_r,001,2020_Dec_09_1442,hue_diff,2020.2.10,60.021055385845926,
images/pbg_ru_9.png,images/pbg_ru_0.png,159.0,up,12,9,189,9,up,1,1.2378916000016034,raghav_r,001,2020_Dec_09_1442,hue_diff,2020.2.10,60.021055385845926,
images/pbg_ru_4.png,images/pbg_ru_0.png,154.0,up,12,10,190,4,a,0,1.5147428000054788,raghav_r,001,2020_Dec_09_1442,hue_diff,2020.2.10,60.021055385845926,
images/pbg_ru_2.png,images/pbg_ru_0.png,152.0,right,12,11,191,2,a,0,1.556754399993224,raghav_r,001,2020_Dec_09_1442,hue_diff,2020.2.10,60.021055385845926,
images/pbg_ru_3.png,images/pbg_ru_0.png,153.0,down,12,12,192,3,a,0,2.052308400016045,raghav_r,001,2020_Dec_09_1442,hue_diff,2020.2.10,60.021055385845926,
images/pbg_ru_0.png,images/pbg_ru_0.png,150.0,up,12,13,193,0,a,0,1.6788531999918632,raghav_r,001,2020_Dec_09_1442,hue_diff,2020.2.10,60.021055385845926,
images/pbg_ru_10.png,images/pbg_ru_0.png,160.0,down,12,14,194,10,down,1,1.5404366999864578,raghav_r,001,2020_Dec_09_1442,hue_diff,2020.2.10,60.021055385845926,
images/pbg_ru_8.png,images/pbg_ru_0.png,158.0,down,13,0,195,8,down,1,1.4948251000023447,raghav_r,001,2020_Dec_09_1442,hue_diff,2020.2.10,60.021055385845926,
images/pbg_ru_6.png,images/pbg_ru_0.png,156.0,down,13,1,196,6,down,1,1.6198957999877166,raghav_r,001,2020_Dec_09_1442,hue_diff,2020.2.10,60.021055385845926,
images/pbg_ru_5.png,images/pbg_ru_0.png,155.0,down,13,2,197,5,down,1,1.548402000014903,raghav_r,001,2020_Dec_09_1442,hue_diff,2020.2.10,60.021055385845926,
images/pbg_ru_14.png,images/pbg_ru_0.png,164.0,left,13,3,198,14,left,1,1.473112100007711,raghav_r,001,2020_Dec_09_1442,hue_diff,2020.2.10,60.021055385845926,
images/pbg_ru_13.png,images/pbg_ru_0.png,163.0,down,13,4,199,13,down,1,1.3369731999991927,raghav_r,001,2020_Dec_09_1442,hue_diff,2020.2.10,60.021055385845926,
images/pbg_ru_4.png,images/pbg_ru_0.png,154.0,up,13,5,200,4,a,0,2.1673848000064027,raghav_r,001,2020_Dec_09_1442,hue_diff,2020.2.10,60.021055385845926,
images/pbg_ru_7.png,images/pbg_ru_0.png,157.0,right,13,6,201,7,right,1,1.5991999999969266,raghav_r,001,2020_Dec_09_1442,hue_diff,2020.2.10,60.021055385845926,
images/pbg_ru_0.png,images/pbg_ru_0.png,150.0,up,13,7,202,0,a,0,2.364245700009633,raghav_r,001,2020_Dec_09_1442,hue_diff,2020.2.10,60.021055385845926,
images/pbg_ru_1.png,images/pbg_ru_0.png,151.0,left,13,8,203,1,a,0,1.998149100021692,raghav_r,001,2020_Dec_09_1442,hue_diff,2020.2.10,60.021055385845926,
images/pbg_ru_10.png,images/pbg_ru_0.png,160.0,down,13,9,204,10,down,1,1.4423625000054017,raghav_r,001,2020_Dec_09_1442,hue_diff,2020.2.10,60.021055385845926,
images/pbg_ru_2.png,images/pbg_ru_0.png,152.0,right,13,10,205,2,a,0,1.6673723999992944,raghav_r,001,2020_Dec_09_1442,hue_diff,2020.2.10,60.021055385845926,
images/pbg_ru_9.png,images/pbg_ru_0.png,159.0,up,13,11,206,9,up,1,1.5251305000274442,raghav_r,001,2020_Dec_09_1442,hue_diff,2020.2.10,60.021055385845926,
images/pbg_ru_3.png,images/pbg_ru_0.png,153.0,down,13,12,207,3,a,0,1.9417532999941614,raghav_r,001,2020_Dec_09_1442,hue_diff,2020.2.10,60.021055385845926,
images/pbg_ru_12.png,images/pbg_ru_0.png,162.0,down,13,13,208,12,down,1,1.3462124000070617,raghav_r,001,2020_Dec_09_1442,hue_diff,2020.2.10,60.021055385845926,
images/pbg_ru_11.png,images/pbg_ru_0.png,161.0,down,13,14,209,11,down,1,1.3831596999953035,raghav_r,001,2020_Dec_09_1442,hue_diff,2020.2.10,60.021055385845926,
images/pbg_ru_13.png,images/pbg_ru_0.png,163.0,down,14,0,210,13,down,1,1.3081068999890704,raghav_r,001,2020_Dec_09_1442,hue_diff,2020.2.10,60.021055385845926,
images/pbg_ru_14.png,images/pbg_ru_0.png,164.0,left,14,1,211,14,left,1,1.5181279000244103,raghav_r,001,2020_Dec_09_1442,hue_diff,2020.2.10,60.021055385845926,
images/pbg_ru_0.png,images/pbg_ru_0.png,150.0,up,14,2,212,0,a,0,1.6623108999920078,raghav_r,001,2020_Dec_09_1442,hue_diff,2020.2.10,60.021055385845926,
images/pbg_ru_8.png,images/pbg_ru_0.png,158.0,down,14,3,213,8,down,1,1.4455714999930933,raghav_r,001,2020_Dec_09_1442,hue_diff,2020.2.10,60.021055385845926,
images/pbg_ru_5.png,images/pbg_ru_0.png,155.0,down,14,4,214,5,down,1,1.4570829999865964,raghav_r,001,2020_Dec_09_1442,hue_diff,2020.2.10,60.021055385845926,
images/pbg_ru_11.png,images/pbg_ru_0.png,161.0,down,14,5,215,11,down,1,1.3547892000060529,raghav_r,001,2020_Dec_09_1442,hue_diff,2020.2.10,60.021055385845926,
images/pbg_ru_3.png,images/pbg_ru_0.png,153.0,down,14,6,216,3,a,0,1.6578545000229497,raghav_r,001,2020_Dec_09_1442,hue_diff,2020.2.10,60.021055385845926,
images/pbg_ru_4.png,images/pbg_ru_0.png,154.0,up,14,7,217,4,a,0,1.9207455999858212,raghav_r,001,2020_Dec_09_1442,hue_diff,2020.2.10,60.021055385845926,
images/pbg_ru_6.png,images/pbg_ru_0.png,156.0,down,14,8,218,6,down,1,1.5447079000005033,raghav_r,001,2020_Dec_09_1442,hue_diff,2020.2.10,60.021055385845926,
images/pbg_ru_2.png,images/pbg_ru_0.png,152.0,right,14,9,219,2,a,0,1.4638478999841027,raghav_r,001,2020_Dec_09_1442,hue_diff,2020.2.10,60.021055385845926,
images/pbg_ru_12.png,images/pbg_ru_0.png,162.0,down,14,10,220,12,down,1,1.3875346999848261,raghav_r,001,2020_Dec_09_1442,hue_diff,2020.2.10,60.021055385845926,
images/pbg_ru_7.png,images/pbg_ru_0.png,157.0,right,14,11,221,7,right,1,1.4169304000097327,raghav_r,001,2020_Dec_09_1442,hue_diff,2020.2.10,60.021055385845926,
images/pbg_ru_1.png,images/pbg_ru_0.png,151.0,left,14,12,222,1,a,0,1.4698413999867626,raghav_r,001,2020_Dec_09_1442,hue_diff,2020.2.10,60.021055385845926,
images/pbg_ru_10.png,images/pbg_ru_0.png,160.0,down,14,13,223,10,down,1,1.448521600017557,raghav_r,001,2020_Dec_09_1442,hue_diff,2020.2.10,60.021055385845926,
images/pbg_ru_9.png,images/pbg_ru_0.png,159.0,up,14,14,224,9,up,1,1.4214499000227079,raghav_r,001,2020_Dec_09_1442,hue_diff,2020.2.10,60.021055385845926,
images/pbg_ru_0.png,images/pbg_ru_0.png,150.0,up,15,0,225,0,a,0,1.483785699994769,raghav_r,001,2020_Dec_09_1442,hue_diff,2020.2.10,60.021055385845926,
images/pbg_ru_2.png,images/pbg_ru_0.png,152.0,right,15,1,226,2,a,0,1.501388800010318,raghav_r,001,2020_Dec_09_1442,hue_diff,2020.2.10,60.021055385845926,
images/pbg_ru_13.png,images/pbg_ru_0.png,163.0,down,15,2,227,13,down,1,1.3419315999781247,raghav_r,001,2020_Dec_09_1442,hue_diff,2020.2.10,60.021055385845926,
images/pbg_ru_3.png,images/pbg_ru_0.png,153.0,down,15,3,228,3,a,0,2.0235081000137143,raghav_r,001,2020_Dec_09_1442,hue_diff,2020.2.10,60.021055385845926,
images/pbg_ru_5.png,images/pbg_ru_0.png,155.0,down,15,4,229,5,down,1,1.4802556000067852,raghav_r,001,2020_Dec_09_1442,hue_diff,2020.2.10,60.021055385845926,
images/pbg_ru_4.png,images/pbg_ru_0.png,154.0,up,15,5,230,4,a,0,12.523687399982009,raghav_r,001,2020_Dec_09_1442,hue_diff,2020.2.10,60.021055385845926,
images/pbg_ru_9.png,images/pbg_ru_0.png,159.0,up,15,6,231,9,a,0,2.1748993000073824,raghav_r,001,2020_Dec_09_1442,hue_diff,2020.2.10,60.021055385845926,
images/pbg_ru_7.png,images/pbg_ru_0.png,157.0,right,15,7,232,7,right,1,1.4286885000183247,raghav_r,001,2020_Dec_09_1442,hue_diff,2020.2.10,60.021055385845926,
images/pbg_ru_11.png,images/pbg_ru_0.png,161.0,down,15,8,233,11,down,1,1.4177382999914698,raghav_r,001,2020_Dec_09_1442,hue_diff,2020.2.10,60.021055385845926,
images/pbg_ru_10.png,images/pbg_ru_0.png,160.0,down,15,9,234,10,down,1,1.4076934999902733,raghav_r,001,2020_Dec_09_1442,hue_diff,2020.2.10,60.021055385845926,
images/pbg_ru_1.png,images/pbg_ru_0.png,151.0,left,15,10,235,1,a,0,1.4557689999928698,raghav_r,001,2020_Dec_09_1442,hue_diff,2020.2.10,60.021055385845926,
images/pbg_ru_6.png,images/pbg_ru_0.png,156.0,down,15,11,236,6,down,1,1.5440639999869745,raghav_r,001,2020_Dec_09_1442,hue_diff,2020.2.10,60.021055385845926,
images/pbg_ru_14.png,images/pbg_ru_0.png,164.0,left,15,12,237,14,left,1,1.4047571000119206,raghav_r,001,2020_Dec_09_1442,hue_diff,2020.2.10,60.021055385845926,
images/pbg_ru_8.png,images/pbg_ru_0.png,158.0,down,15,13,238,8,down,1,1.4073836999887135,raghav_r,001,2020_Dec_09_1442,hue_diff,2020.2.10,60.021055385845926,
images/pbg_ru_12.png,images/pbg_ru_0.png,162.0,down,15,14,239,12,down,1,1.4212387000152376,raghav_r,001,2020_Dec_09_1442,hue_diff,2020.2.10,60.021055385845926,
images/pbg_ru_8.png,images/pbg_ru_0.png,158.0,down,16,0,240,8,down,1,1.379976299998816,raghav_r,001,2020_Dec_09_1442,hue_diff,2020.2.10,60.021055385845926,
images/pbg_ru_4.png,images/pbg_ru_0.png,154.0,up,16,1,241,4,a,0,1.45915030001197,raghav_r,001,2020_Dec_09_1442,hue_diff,2020.2.10,60.021055385845926,
images/pbg_ru_14.png,images/pbg_ru_0.png,164.0,left,16,2,242,14,left,1,1.4285639000008814,raghav_r,001,2020_Dec_09_1442,hue_diff,2020.2.10,60.021055385845926,
images/pbg_ru_9.png,images/pbg_ru_0.png,159.0,up,16,3,243,9,up,1,1.4208478999789804,raghav_r,001,2020_Dec_09_1442,hue_diff,2020.2.10,60.021055385845926,
images/pbg_ru_0.png,images/pbg_ru_0.png,150.0,up,16,4,244,0,a,0,1.5080961000057869,raghav_r,001,2020_Dec_09_1442,hue_diff,2020.2.10,60.021055385845926,
images/pbg_ru_2.png,images/pbg_ru_0.png,152.0,right,16,5,245,2,a,0,1.6570278000144754,raghav_r,001,2020_Dec_09_1442,hue_diff,2020.2.10,60.021055385845926,
images/pbg_ru_1.png,images/pbg_ru_0.png,151.0,left,16,6,246,1,a,0,1.7175706000125501,raghav_r,001,2020_Dec_09_1442,hue_diff,2020.2.10,60.021055385845926,
images/pbg_ru_12.png,images/pbg_ru_0.png,162.0,down,16,7,247,12,down,1,1.3784485000069253,raghav_r,001,2020_Dec_09_1442,hue_diff,2020.2.10,60.021055385845926,
images/pbg_ru_11.png,images/pbg_ru_0.png,161.0,down,16,8,248,11,down,1,1.333752500009723,raghav_r,001,2020_Dec_09_1442,hue_diff,2020.2.10,60.021055385845926,
images/pbg_ru_5.png,images/pbg_ru_0.png,155.0,down,16,9,249,5,down,1,1.3587774999905378,raghav_r,001,2020_Dec_09_1442,hue_diff,2020.2.10,60.021055385845926,
images/pbg_ru_3.png,images/pbg_ru_0.png,153.0,down,16,10,250,3,down,1,1.6448925999866333,raghav_r,001,2020_Dec_09_1442,hue_diff,2020.2.10,60.021055385845926,
images/pbg_ru_6.png,images/pbg_ru_0.png,156.0,down,16,11,251,6,down,1,1.4144348000118043,raghav_r,001,2020_Dec_09_1442,hue_diff,2020.2.10,60.021055385845926,
images/pbg_ru_13.png,images/pbg_ru_0.png,163.0,down,16,12,252,13,down,1,1.343303300003754,raghav_r,001,2020_Dec_09_1442,hue_diff,2020.2.10,60.021055385845926,
images/pbg_ru_7.png,images/pbg_ru_0.png,157.0,right,16,13,253,7,right,1,1.2822873999830335,raghav_r,001,2020_Dec_09_1442,hue_diff,2020.2.10,60.021055385845926,
images/pbg_ru_10.png,images/pbg_ru_0.png,160.0,down,16,14,254,10,down,1,1.300110800017137,raghav_r,001,2020_Dec_09_1442,hue_diff,2020.2.10,60.021055385845926,
images/pbg_ru_11.png,images/pbg_ru_0.png,161.0,down,17,0,255,11,down,1,1.2782300999970175,raghav_r,001,2020_Dec_09_1442,hue_diff,2020.2.10,60.021055385845926,
images/pbg_ru_7.png,images/pbg_ru_0.png,157.0,right,17,1,256,7,right,1,1.4543747999996413,raghav_r,001,2020_Dec_09_1442,hue_diff,2020.2.10,60.021055385845926,
images/pbg_ru_3.png,images/pbg_ru_0.png,153.0,down,17,2,257,3,a,0,1.7429832000052556,raghav_r,001,2020_Dec_09_1442,hue_diff,2020.2.10,60.021055385845926,
images/pbg_ru_0.png,images/pbg_ru_0.png,150.0,up,17,3,258,0,a,0,1.4574044999899343,raghav_r,001,2020_Dec_09_1442,hue_diff,2020.2.10,60.021055385845926,
images/pbg_ru_4.png,images/pbg_ru_0.png,154.0,up,17,4,259,4,a,0,1.7183762000058778,raghav_r,001,2020_Dec_09_1442,hue_diff,2020.2.10,60.021055385845926,
images/pbg_ru_13.png,images/pbg_ru_0.png,163.0,down,17,5,260,13,down,1,1.2950500999868382,raghav_r,001,2020_Dec_09_1442,hue_diff,2020.2.10,60.021055385845926,
images/pbg_ru_2.png,images/pbg_ru_0.png,152.0,right,17,6,261,2,a,0,1.5246654000075068,raghav_r,001,2020_Dec_09_1442,hue_diff,2020.2.10,60.021055385845926,
images/pbg_ru_1.png,images/pbg_ru_0.png,151.0,left,17,7,262,1,a,0,1.4851177000091411,raghav_r,001,2020_Dec_09_1442,hue_diff,2020.2.10,60.021055385845926,
images/pbg_ru_6.png,images/pbg_ru_0.png,156.0,down,17,8,263,6,down,1,1.3083294999960344,raghav_r,001,2020_Dec_09_1442,hue_diff,2020.2.10,60.021055385845926,
images/pbg_ru_9.png,images/pbg_ru_0.png,159.0,up,17,9,264,9,up,1,1.401116599998204,raghav_r,001,2020_Dec_09_1442,hue_diff,2020.2.10,60.021055385845926,
images/pbg_ru_14.png,images/pbg_ru_0.png,164.0,left,17,10,265,14,left,1,1.3611464999848977,raghav_r,001,2020_Dec_09_1442,hue_diff,2020.2.10,60.021055385845926,
images/pbg_ru_8.png,images/pbg_ru_0.png,158.0,down,17,11,266,8,down,1,1.4266324999916833,raghav_r,001,2020_Dec_09_1442,hue_diff,2020.2.10,60.021055385845926,
images/pbg_ru_5.png,images/pbg_ru_0.png,155.0,down,17,12,267,5,down,1,1.483147100021597,raghav_r,001,2020_Dec_09_1442,hue_diff,2020.2.10,60.021055385845926,
images/pbg_ru_12.png,images/pbg_ru_0.png,162.0,down,17,13,268,12,down,1,1.4653015999938361,raghav_r,001,2020_Dec_09_1442,hue_diff,2020.2.10,60.021055385845926,
images/pbg_ru_10.png,images/pbg_ru_0.png,160.0,down,17,14,269,10,down,1,1.4847925000067335,raghav_r,001,2020_Dec_09_1442,hue_diff,2020.2.10,60.021055385845926,
images/pbg_ru_6.png,images/pbg_ru_0.png,156.0,down,18,0,270,6,down,1,1.4712058999866713,raghav_r,001,2020_Dec_09_1442,hue_diff,2020.2.10,60.021055385845926,
images/pbg_ru_9.png,images/pbg_ru_0.png,159.0,up,18,1,271,9,up,1,1.4889744000101928,raghav_r,001,2020_Dec_09_1442,hue_diff,2020.2.10,60.021055385845926,
images/pbg_ru_0.png,images/pbg_ru_0.png,150.0,up,18,2,272,0,a,0,1.9411164000048302,raghav_r,001,2020_Dec_09_1442,hue_diff,2020.2.10,60.021055385845926,
images/pbg_ru_10.png,images/pbg_ru_0.png,160.0,down,18,3,273,10,down,1,1.440688400005456,raghav_r,001,2020_Dec_09_1442,hue_diff,2020.2.10,60.021055385845926,
images/pbg_ru_12.png,images/pbg_ru_0.png,162.0,down,18,4,274,12,down,1,1.4823166000132915,raghav_r,001,2020_Dec_09_1442,hue_diff,2020.2.10,60.021055385845926,
images/pbg_ru_2.png,images/pbg_ru_0.png,152.0,right,18,5,275,2,a,0,1.8140713000029791,raghav_r,001,2020_Dec_09_1442,hue_diff,2020.2.10,60.021055385845926,
images/pbg_ru_7.png,images/pbg_ru_0.png,157.0,right,18,6,276,7,a,0,2.237509800004773,raghav_r,001,2020_Dec_09_1442,hue_diff,2020.2.10,60.021055385845926,
images/pbg_ru_11.png,images/pbg_ru_0.png,161.0,down,18,7,277,11,down,1,1.424576600024011,raghav_r,001,2020_Dec_09_1442,hue_diff,2020.2.10,60.021055385845926,
images/pbg_ru_1.png,images/pbg_ru_0.png,151.0,left,18,8,278,1,a,0,1.5613532999996096,raghav_r,001,2020_Dec_09_1442,hue_diff,2020.2.10,60.021055385845926,
images/pbg_ru_3.png,images/pbg_ru_0.png,153.0,down,18,9,279,3,a,0,1.7713684000191279,raghav_r,001,2020_Dec_09_1442,hue_diff,2020.2.10,60.021055385845926,
images/pbg_ru_5.png,images/pbg_ru_0.png,155.0,down,18,10,280,5,down,1,1.4598199999891222,raghav_r,001,2020_Dec_09_1442,hue_diff,2020.2.10,60.021055385845926,
images/pbg_ru_4.png,images/pbg_ru_0.png,154.0,up,18,11,281,4,a,0,1.5327658000169322,raghav_r,001,2020_Dec_09_1442,hue_diff,2020.2.10,60.021055385845926,
images/pbg_ru_14.png,images/pbg_ru_0.png,164.0,left,18,12,282,14,left,1,1.398144599981606,raghav_r,001,2020_Dec_09_1442,hue_diff,2020.2.10,60.021055385845926,
images/pbg_ru_8.png,images/pbg_ru_0.png,158.0,down,18,13,283,8,down,1,1.3750656999764033,raghav_r,001,2020_Dec_09_1442,hue_diff,2020.2.10,60.021055385845926,
images/pbg_ru_13.png,images/pbg_ru_0.png,163.0,down,18,14,284,13,down,1,1.3921734000032302,raghav_r,001,2020_Dec_09_1442,hue_diff,2020.2.10,60.021055385845926,
images/pbg_ru_6.png,images/pbg_ru_0.png,156.0,down,19,0,285,6,down,1,1.3771638000034727,raghav_r,001,2020_Dec_09_1442,hue_diff,2020.2.10,60.021055385845926,
images/pbg_ru_1.png,images/pbg_ru_0.png,151.0,left,19,1,286,1,a,0,1.5674029999936465,raghav_r,001,2020_Dec_09_1442,hue_diff,2020.2.10,60.021055385845926,
images/pbg_ru_11.png,images/pbg_ru_0.png,161.0,down,19,2,287,11,a,0,2.732013700006064,raghav_r,001,2020_Dec_09_1442,hue_diff,2020.2.10,60.021055385845926,
images/pbg_ru_13.png,images/pbg_ru_0.png,163.0,down,19,3,288,13,down,1,1.3838063000002876,raghav_r,001,2020_Dec_09_1442,hue_diff,2020.2.10,60.021055385845926,
images/pbg_ru_9.png,images/pbg_ru_0.png,159.0,up,19,4,289,9,a,0,1.6845682999992277,raghav_r,001,2020_Dec_09_1442,hue_diff,2020.2.10,60.021055385845926,
images/pbg_ru_2.png,images/pbg_ru_0.png,152.0,right,19,5,290,2,a,0,1.4802690999931656,raghav_r,001,2020_Dec_09_1442,hue_diff,2020.2.10,60.021055385845926,
images/pbg_ru_10.png,images/pbg_ru_0.png,160.0,down,19,6,291,10,down,1,1.4019184000208043,raghav_r,001,2020_Dec_09_1442,hue_diff,2020.2.10,60.021055385845926,
images/pbg_ru_7.png,images/pbg_ru_0.png,157.0,right,19,7,292,7,a,0,2.3572732000029646,raghav_r,001,2020_Dec_09_1442,hue_diff,2020.2.10,60.021055385845926,
images/pbg_ru_0.png,images/pbg_ru_0.png,150.0,up,19,8,293,0,a,0,7.96750470000552,raghav_r,001,2020_Dec_09_1442,hue_diff,2020.2.10,60.021055385845926,
images/pbg_ru_4.png,images/pbg_ru_0.png,154.0,up,19,9,294,4,a,0,2.265705700003309,raghav_r,001,2020_Dec_09_1442,hue_diff,2020.2.10,60.021055385845926,
images/pbg_ru_14.png,images/pbg_ru_0.png,164.0,left,19,10,295,14,left,1,1.3947557000210509,raghav_r,001,2020_Dec_09_1442,hue_diff,2020.2.10,60.021055385845926,
images/pbg_ru_8.png,images/pbg_ru_0.png,158.0,down,19,11,296,8,down,1,1.4679877999878954,raghav_r,001,2020_Dec_09_1442,hue_diff,2020.2.10,60.021055385845926,
images/pbg_ru_3.png,images/pbg_ru_0.png,153.0,down,19,12,297,3,a,0,1.582824699988123,raghav_r,001,2020_Dec_09_1442,hue_diff,2020.2.10,60.021055385845926,
images/pbg_ru_5.png,images/pbg_ru_0.png,155.0,down,19,13,298,5,down,1,1.4183786000066902,raghav_r,001,2020_Dec_09_1442,hue_diff,2020.2.10,60.021055385845926,
images/pbg_ru_12.png,images/pbg_ru_0.png,162.0,down,19,14,299,12,down,1,1.353755199990701,raghav_r,001,2020_Dec_09_1442,hue_diff,2020.2.10,60.021055385845926,
