File,BGbase,Color_change,CorrAns,trials.thisRepN,trials.thisTrialN,trials.thisN,trials.thisIndex,key_resp.keys,key_resp.corr,key_resp.rt,participant,session,date,expName,psychopyVersion,frameRate,
images/pbg_bu_5.png,images/pbg_bu_0.png,160.0,right,0,0,0,5,right,1,1.4266257999988738,sahil_b,001,2020_Dec_09_1502,hue_diff,2020.2.10,60.07409539397417,
images/pbg_bu_12.png,images/pbg_bu_0.png,174.0,right,0,1,1,12,right,1,1.052098100015428,sahil_b,001,2020_Dec_09_1502,hue_diff,2020.2.10,60.07409539397417,
images/pbg_bu_9.png,images/pbg_bu_0.png,168.0,up,0,2,2,9,up,1,1.1211359999724664,sahil_b,001,2020_Dec_09_1502,hue_diff,2020.2.10,60.07409539397417,
images/pbg_bu_6.png,images/pbg_bu_0.png,162.0,down,0,3,3,6,down,1,1.0937546000059228,sahil_b,001,2020_Dec_09_1502,hue_diff,2020.2.10,60.07409539397417,
images/pbg_bu_10.png,images/pbg_bu_0.png,170.0,up,0,4,4,10,up,1,0.8847066000162158,sahil_b,001,2020_Dec_09_1502,hue_diff,2020.2.10,60.07409539397417,
images/pbg_bu_8.png,images/pbg_bu_0.png,166.0,down,0,5,5,8,down,1,1.0395499000151176,sahil_b,001,2020_Dec_09_1502,hue_diff,2020.2.10,60.07409539397417,
images/pbg_bu_4.png,images/pbg_bu_0.png,158.0,right,0,6,6,4,right,1,1.053152799984673,sahil_b,001,2020_Dec_09_1502,hue_diff,2020.2.10,60.07409539397417,
images/pbg_bu_2.png,images/pbg_bu_0.png,154.0,up,0,7,7,2,a,0,7.126056700013578,sahil_b,001,2020_Dec_09_1502,hue_diff,2020.2.10,60.07409539397417,
images/pbg_bu_11.png,images/pbg_bu_0.png,172.0,right,0,8,8,11,right,1,1.0787457999831531,sahil_b,001,2020_Dec_09_1502,hue_diff,2020.2.10,60.07409539397417,
images/pbg_bu_0.png,images/pbg_bu_0.png,150.0,right,0,9,9,0,right,1,2.513358399999561,sahil_b,001,2020_Dec_09_1502,hue_diff,2020.2.10,60.07409539397417,
images/pbg_bu_13.png,images/pbg_bu_0.png,176.0,right,0,10,10,13,right,1,1.7970173000067007,sahil_b,001,2020_Dec_09_1502,hue_diff,2020.2.10,60.07409539397417,
images/pbg_bu_3.png,images/pbg_bu_0.png,156.0,right,0,11,11,3,a,0,2.420353099994827,sahil_b,001,2020_Dec_09_1502,hue_diff,2020.2.10,60.07409539397417,
images/pbg_bu_7.png,images/pbg_bu_0.png,164.0,right,0,12,12,7,right,1,1.3775651999749243,sahil_b,001,2020_Dec_09_1502,hue_diff,2020.2.10,60.07409539397417,
images/pbg_bu_1.png,images/pbg_bu_0.png,152.0,down,0,13,13,1,a,0,2.422720800008392,sahil_b,001,2020_Dec_09_1502,hue_diff,2020.2.10,60.07409539397417,
images/pbg_bu_14.png,images/pbg_bu_0.png,178.0,right,0,14,14,14,right,1,1.5698447999893688,sahil_b,001,2020_Dec_09_1502,hue_diff,2020.2.10,60.07409539397417,
images/pbg_bu_6.png,images/pbg_bu_0.png,162.0,down,1,0,15,6,down,1,1.5470153999922331,sahil_b,001,2020_Dec_09_1502,hue_diff,2020.2.10,60.07409539397417,
images/pbg_bu_12.png,images/pbg_bu_0.png,174.0,right,1,1,16,12,right,1,1.4900282999733463,sahil_b,001,2020_Dec_09_1502,hue_diff,2020.2.10,60.07409539397417,
images/pbg_bu_3.png,images/pbg_bu_0.png,156.0,right,1,2,17,3,a,0,1.7743846999946982,sahil_b,001,2020_Dec_09_1502,hue_diff,2020.2.10,60.07409539397417,
images/pbg_bu_1.png,images/pbg_bu_0.png,152.0,down,1,3,18,1,a,0,2.0529549999919254,sahil_b,001,2020_Dec_09_1502,hue_diff,2020.2.10,60.07409539397417,
images/pbg_bu_14.png,images/pbg_bu_0.png,178.0,right,1,4,19,14,right,1,1.4167470000102185,sahil_b,001,2020_Dec_09_1502,hue_diff,2020.2.10,60.07409539397417,
images/pbg_bu_7.png,images/pbg_bu_0.png,164.0,right,1,5,20,7,right,1,1.4521581000008155,sahil_b,001,2020_Dec_09_1502,hue_diff,2020.2.10,60.07409539397417,
images/pbg_bu_5.png,images/pbg_bu_0.png,160.0,right,1,6,21,5,right,1,1.5253756000020076,sahil_b,001,2020_Dec_09_1502,hue_diff,2020.2.10,60.07409539397417,
images/pbg_bu_0.png,images/pbg_bu_0.png,150.0,right,1,7,22,0,a,0,1.9358534000057261,sahil_b,001,2020_Dec_09_1502,hue_diff,2020.2.10,60.07409539397417,
images/pbg_bu_10.png,images/pbg_bu_0.png,170.0,up,1,8,23,10,up,1,1.4668897000083234,sahil_b,001,2020_Dec_09_1502,hue_diff,2020.2.10,60.07409539397417,
images/pbg_bu_8.png,images/pbg_bu_0.png,166.0,down,1,9,24,8,down,1,1.5157198999950197,sahil_b,001,2020_Dec_09_1502,hue_diff,2020.2.10,60.07409539397417,
images/pbg_bu_4.png,images/pbg_bu_0.png,158.0,right,1,10,25,4,right,1,1.485920700011775,sahil_b,001,2020_Dec_09_1502,hue_diff,2020.2.10,60.07409539397417,
images/pbg_bu_13.png,images/pbg_bu_0.png,176.0,right,1,11,26,13,right,1,1.3961523000034504,sahil_b,001,2020_Dec_09_1502,hue_diff,2020.2.10,60.07409539397417,
images/pbg_bu_11.png,images/pbg_bu_0.png,172.0,right,1,12,27,11,right,1,1.4568071000103373,sahil_b,001,2020_Dec_09_1502,hue_diff,2020.2.10,60.07409539397417,
images/pbg_bu_9.png,images/pbg_bu_0.png,168.0,up,1,13,28,9,up,1,1.5001192000054289,sahil_b,001,2020_Dec_09_1502,hue_diff,2020.2.10,60.07409539397417,
images/pbg_bu_2.png,images/pbg_bu_0.png,154.0,up,1,14,29,2,a,0,1.8028416000015568,sahil_b,001,2020_Dec_09_1502,hue_diff,2020.2.10,60.07409539397417,
images/pbg_bu_7.png,images/pbg_bu_0.png,164.0,right,2,0,30,7,right,1,1.4432178999995813,sahil_b,001,2020_Dec_09_1502,hue_diff,2020.2.10,60.07409539397417,
images/pbg_bu_11.png,images/pbg_bu_0.png,172.0,right,2,1,31,11,right,1,1.4902561999915633,sahil_b,001,2020_Dec_09_1502,hue_diff,2020.2.10,60.07409539397417,
images/pbg_bu_14.png,images/pbg_bu_0.png,178.0,right,2,2,32,14,right,1,1.519055799988564,sahil_b,001,2020_Dec_09_1502,hue_diff,2020.2.10,60.07409539397417,
images/pbg_bu_9.png,images/pbg_bu_0.png,168.0,up,2,3,33,9,up,1,1.4564481000124943,sahil_b,001,2020_Dec_09_1502,hue_diff,2020.2.10,60.07409539397417,
images/pbg_bu_5.png,images/pbg_bu_0.png,160.0,right,2,4,34,5,right,1,1.4318091000022832,sahil_b,001,2020_Dec_09_1502,hue_diff,2020.2.10,60.07409539397417,
images/pbg_bu_12.png,images/pbg_bu_0.png,174.0,right,2,5,35,12,right,1,1.4659336999757215,sahil_b,001,2020_Dec_09_1502,hue_diff,2020.2.10,60.07409539397417,
images/pbg_bu_4.png,images/pbg_bu_0.png,158.0,right,2,6,36,4,right,1,1.4557669000059832,sahil_b,001,2020_Dec_09_1502,hue_diff,2020.2.10,60.07409539397417,
images/pbg_bu_10.png,images/pbg_bu_0.png,170.0,up,2,7,37,10,up,1,1.3275480000011157,sahil_b,001,2020_Dec_09_1502,hue_diff,2020.2.10,60.07409539397417,
images/pbg_bu_2.png,images/pbg_bu_0.png,154.0,up,2,8,38,2,a,0,1.8876786999753676,sahil_b,001,2020_Dec_09_1502,hue_diff,2020.2.10,60.07409539397417,
images/pbg_bu_8.png,images/pbg_bu_0.png,166.0,down,2,9,39,8,down,1,1.2586439999868162,sahil_b,001,2020_Dec_09_1502,hue_diff,2020.2.10,60.07409539397417,
images/pbg_bu_1.png,images/pbg_bu_0.png,152.0,down,2,10,40,1,a,0,1.603761400008807,sahil_b,001,2020_Dec_09_1502,hue_diff,2020.2.10,60.07409539397417,
images/pbg_bu_13.png,images/pbg_bu_0.png,176.0,right,2,11,41,13,right,1,1.3225619999866467,sahil_b,001,2020_Dec_09_1502,hue_diff,2020.2.10,60.07409539397417,
images/pbg_bu_0.png,images/pbg_bu_0.png,150.0,right,2,12,42,0,a,0,1.639335799991386,sahil_b,001,2020_Dec_09_1502,hue_diff,2020.2.10,60.07409539397417,
images/pbg_bu_3.png,images/pbg_bu_0.png,156.0,right,2,13,43,3,right,1,1.474045799986925,sahil_b,001,2020_Dec_09_1502,hue_diff,2020.2.10,60.07409539397417,
images/pbg_bu_6.png,images/pbg_bu_0.png,162.0,down,2,14,44,6,down,1,1.4041229999857023,sahil_b,001,2020_Dec_09_1502,hue_diff,2020.2.10,60.07409539397417,
images/pbg_bu_1.png,images/pbg_bu_0.png,152.0,down,3,0,45,1,a,0,1.6448658999870531,sahil_b,001,2020_Dec_09_1502,hue_diff,2020.2.10,60.07409539397417,
images/pbg_bu_2.png,images/pbg_bu_0.png,154.0,up,3,1,46,2,a,0,1.6029133999836631,sahil_b,001,2020_Dec_09_1502,hue_diff,2020.2.10,60.07409539397417,
images/pbg_bu_11.png,images/pbg_bu_0.png,172.0,right,3,2,47,11,right,1,1.4541813000105321,sahil_b,001,2020_Dec_09_1502,hue_diff,2020.2.10,60.07409539397417,
images/pbg_bu_14.png,images/pbg_bu_0.png,178.0,right,3,3,48,14,right,1,1.4296435999858659,sahil_b,001,2020_Dec_09_1502,hue_diff,2020.2.10,60.07409539397417,
images/pbg_bu_13.png,images/pbg_bu_0.png,176.0,right,3,4,49,13,right,1,1.4473335999937262,sahil_b,001,2020_Dec_09_1502,hue_diff,2020.2.10,60.07409539397417,
images/pbg_bu_12.png,images/pbg_bu_0.png,174.0,right,3,5,50,12,right,1,1.4368524000165053,sahil_b,001,2020_Dec_09_1502,hue_diff,2020.2.10,60.07409539397417,
images/pbg_bu_5.png,images/pbg_bu_0.png,160.0,right,3,6,51,5,right,1,1.4023769000195898,sahil_b,001,2020_Dec_09_1502,hue_diff,2020.2.10,60.07409539397417,
images/pbg_bu_4.png,images/pbg_bu_0.png,158.0,right,3,7,52,4,a,0,1.5344181999971624,sahil_b,001,2020_Dec_09_1502,hue_diff,2020.2.10,60.07409539397417,
images/pbg_bu_3.png,images/pbg_bu_0.png,156.0,right,3,8,53,3,right,1,1.2447016999940388,sahil_b,001,2020_Dec_09_1502,hue_diff,2020.2.10,60.07409539397417,
images/pbg_bu_6.png,images/pbg_bu_0.png,162.0,down,3,9,54,6,down,1,1.4431833999988157,sahil_b,001,2020_Dec_09_1502,hue_diff,2020.2.10,60.07409539397417,
images/pbg_bu_8.png,images/pbg_bu_0.png,166.0,down,3,10,55,8,down,1,1.279099800012773,sahil_b,001,2020_Dec_09_1502,hue_diff,2020.2.10,60.07409539397417,
images/pbg_bu_9.png,images/pbg_bu_0.png,168.0,up,3,11,56,9,up,1,1.3515641999838408,sahil_b,001,2020_Dec_09_1502,hue_diff,2020.2.10,60.07409539397417,
images/pbg_bu_0.png,images/pbg_bu_0.png,150.0,right,3,12,57,0,a,0,1.432306000002427,sahil_b,001,2020_Dec_09_1502,hue_diff,2020.2.10,60.07409539397417,
images/pbg_bu_7.png,images/pbg_bu_0.png,164.0,right,3,13,58,7,right,1,1.1615970999991987,sahil_b,001,2020_Dec_09_1502,hue_diff,2020.2.10,60.07409539397417,
images/pbg_bu_10.png,images/pbg_bu_0.png,170.0,up,3,14,59,10,up,1,1.1965785000065807,sahil_b,001,2020_Dec_09_1502,hue_diff,2020.2.10,60.07409539397417,
images/pbg_bu_6.png,images/pbg_bu_0.png,162.0,down,4,0,60,6,down,1,1.194575999979861,sahil_b,001,2020_Dec_09_1502,hue_diff,2020.2.10,60.07409539397417,
images/pbg_bu_2.png,images/pbg_bu_0.png,154.0,up,4,1,61,2,a,0,1.7823230999929365,sahil_b,001,2020_Dec_09_1502,hue_diff,2020.2.10,60.07409539397417,
images/pbg_bu_12.png,images/pbg_bu_0.png,174.0,right,4,2,62,12,right,1,1.079373000015039,sahil_b,001,2020_Dec_09_1502,hue_diff,2020.2.10,60.07409539397417,
images/pbg_bu_14.png,images/pbg_bu_0.png,178.0,right,4,3,63,14,right,1,1.4642680000106338,sahil_b,001,2020_Dec_09_1502,hue_diff,2020.2.10,60.07409539397417,
images/pbg_bu_10.png,images/pbg_bu_0.png,170.0,up,4,4,64,10,up,1,1.4719457000028342,sahil_b,001,2020_Dec_09_1502,hue_diff,2020.2.10,60.07409539397417,
images/pbg_bu_3.png,images/pbg_bu_0.png,156.0,right,4,5,65,3,right,1,1.4461030999955256,sahil_b,001,2020_Dec_09_1502,hue_diff,2020.2.10,60.07409539397417,
images/pbg_bu_4.png,images/pbg_bu_0.png,158.0,right,4,6,66,4,right,1,1.4680436000053305,sahil_b,001,2020_Dec_09_1502,hue_diff,2020.2.10,60.07409539397417,
images/pbg_bu_5.png,images/pbg_bu_0.png,160.0,right,4,7,67,5,right,1,1.4314173000166193,sahil_b,001,2020_Dec_09_1502,hue_diff,2020.2.10,60.07409539397417,
images/pbg_bu_9.png,images/pbg_bu_0.png,168.0,up,4,8,68,9,up,1,1.5164957999950275,sahil_b,001,2020_Dec_09_1502,hue_diff,2020.2.10,60.07409539397417,
images/pbg_bu_7.png,images/pbg_bu_0.png,164.0,right,4,9,69,7,right,1,1.691353700007312,sahil_b,001,2020_Dec_09_1502,hue_diff,2020.2.10,60.07409539397417,
images/pbg_bu_0.png,images/pbg_bu_0.png,150.0,right,4,10,70,0,a,0,1.8608117999974638,sahil_b,001,2020_Dec_09_1502,hue_diff,2020.2.10,60.07409539397417,
images/pbg_bu_13.png,images/pbg_bu_0.png,176.0,right,4,11,71,13,right,1,1.4879529000027105,sahil_b,001,2020_Dec_09_1502,hue_diff,2020.2.10,60.07409539397417,
images/pbg_bu_1.png,images/pbg_bu_0.png,152.0,down,4,12,72,1,a,0,2.415880399988964,sahil_b,001,2020_Dec_09_1502,hue_diff,2020.2.10,60.07409539397417,
images/pbg_bu_8.png,images/pbg_bu_0.png,166.0,down,4,13,73,8,down,1,1.534605000022566,sahil_b,001,2020_Dec_09_1502,hue_diff,2020.2.10,60.07409539397417,
images/pbg_bu_11.png,images/pbg_bu_0.png,172.0,right,4,14,74,11,right,1,1.5629731000226457,sahil_b,001,2020_Dec_09_1502,hue_diff,2020.2.10,60.07409539397417,
images/pbg_bu_12.png,images/pbg_bu_0.png,174.0,right,5,0,75,12,right,1,1.4781421000079717,sahil_b,001,2020_Dec_09_1502,hue_diff,2020.2.10,60.07409539397417,
images/pbg_bu_13.png,images/pbg_bu_0.png,176.0,right,5,1,76,13,right,1,1.5055432000081055,sahil_b,001,2020_Dec_09_1502,hue_diff,2020.2.10,60.07409539397417,
images/pbg_bu_6.png,images/pbg_bu_0.png,162.0,down,5,2,77,6,down,1,1.4798987999965902,sahil_b,001,2020_Dec_09_1502,hue_diff,2020.2.10,60.07409539397417,
images/pbg_bu_2.png,images/pbg_bu_0.png,154.0,up,5,3,78,2,a,0,1.5897384000127204,sahil_b,001,2020_Dec_09_1502,hue_diff,2020.2.10,60.07409539397417,
images/pbg_bu_14.png,images/pbg_bu_0.png,178.0,right,5,4,79,14,right,1,1.4859169999836013,sahil_b,001,2020_Dec_09_1502,hue_diff,2020.2.10,60.07409539397417,
images/pbg_bu_7.png,images/pbg_bu_0.png,164.0,right,5,5,80,7,right,1,1.5314275000127964,sahil_b,001,2020_Dec_09_1502,hue_diff,2020.2.10,60.07409539397417,
images/pbg_bu_0.png,images/pbg_bu_0.png,150.0,right,5,6,81,0,left,0,2.1185293000016827,sahil_b,001,2020_Dec_09_1502,hue_diff,2020.2.10,60.07409539397417,
images/pbg_bu_5.png,images/pbg_bu_0.png,160.0,right,5,7,82,5,right,1,1.5679010999738239,sahil_b,001,2020_Dec_09_1502,hue_diff,2020.2.10,60.07409539397417,
images/pbg_bu_4.png,images/pbg_bu_0.png,158.0,right,5,8,83,4,right,1,1.7257186000060756,sahil_b,001,2020_Dec_09_1502,hue_diff,2020.2.10,60.07409539397417,
images/pbg_bu_1.png,images/pbg_bu_0.png,152.0,down,5,9,84,1,a,0,1.8476703000196721,sahil_b,001,2020_Dec_09_1502,hue_diff,2020.2.10,60.07409539397417,
images/pbg_bu_11.png,images/pbg_bu_0.png,172.0,right,5,10,85,11,right,1,1.1139128999784589,sahil_b,001,2020_Dec_09_1502,hue_diff,2020.2.10,60.07409539397417,
images/pbg_bu_8.png,images/pbg_bu_0.png,166.0,down,5,11,86,8,down,1,1.4685976000037044,sahil_b,001,2020_Dec_09_1502,hue_diff,2020.2.10,60.07409539397417,
images/pbg_bu_3.png,images/pbg_bu_0.png,156.0,right,5,12,87,3,right,1,1.4785979999869596,sahil_b,001,2020_Dec_09_1502,hue_diff,2020.2.10,60.07409539397417,
images/pbg_bu_9.png,images/pbg_bu_0.png,168.0,up,5,13,88,9,up,1,1.4786335999961011,sahil_b,001,2020_Dec_09_1502,hue_diff,2020.2.10,60.07409539397417,
images/pbg_bu_10.png,images/pbg_bu_0.png,170.0,up,5,14,89,10,up,1,1.5367679999908432,sahil_b,001,2020_Dec_09_1502,hue_diff,2020.2.10,60.07409539397417,
images/pbg_bu_3.png,images/pbg_bu_0.png,156.0,right,6,0,90,3,right,1,1.6844125000061467,sahil_b,001,2020_Dec_09_1502,hue_diff,2020.2.10,60.07409539397417,
images/pbg_bu_2.png,images/pbg_bu_0.png,154.0,up,6,1,91,2,a,0,1.9901189000229351,sahil_b,001,2020_Dec_09_1502,hue_diff,2020.2.10,60.07409539397417,
images/pbg_bu_14.png,images/pbg_bu_0.png,178.0,right,6,2,92,14,right,1,1.5721032999863382,sahil_b,001,2020_Dec_09_1502,hue_diff,2020.2.10,60.07409539397417,
images/pbg_bu_0.png,images/pbg_bu_0.png,150.0,right,6,3,93,0,a,0,1.9755980999907479,sahil_b,001,2020_Dec_09_1502,hue_diff,2020.2.10,60.07409539397417,
images/pbg_bu_10.png,images/pbg_bu_0.png,170.0,up,6,4,94,10,up,1,1.4285079999826849,sahil_b,001,2020_Dec_09_1502,hue_diff,2020.2.10,60.07409539397417,
images/pbg_bu_4.png,images/pbg_bu_0.png,158.0,right,6,5,95,4,right,1,1.5937508999777492,sahil_b,001,2020_Dec_09_1502,hue_diff,2020.2.10,60.07409539397417,
images/pbg_bu_11.png,images/pbg_bu_0.png,172.0,right,6,6,96,11,right,1,1.748883599997498,sahil_b,001,2020_Dec_09_1502,hue_diff,2020.2.10,60.07409539397417,
images/pbg_bu_13.png,images/pbg_bu_0.png,176.0,right,6,7,97,13,right,1,1.4642845000198577,sahil_b,001,2020_Dec_09_1502,hue_diff,2020.2.10,60.07409539397417,
images/pbg_bu_7.png,images/pbg_bu_0.png,164.0,right,6,8,98,7,right,1,1.5207778999756556,sahil_b,001,2020_Dec_09_1502,hue_diff,2020.2.10,60.07409539397417,
images/pbg_bu_5.png,images/pbg_bu_0.png,160.0,right,6,9,99,5,right,1,1.3351226999948267,sahil_b,001,2020_Dec_09_1502,hue_diff,2020.2.10,60.07409539397417,
images/pbg_bu_1.png,images/pbg_bu_0.png,152.0,down,6,10,100,1,a,0,2.019343000021763,sahil_b,001,2020_Dec_09_1502,hue_diff,2020.2.10,60.07409539397417,
images/pbg_bu_12.png,images/pbg_bu_0.png,174.0,right,6,11,101,12,right,1,1.4518584000179544,sahil_b,001,2020_Dec_09_1502,hue_diff,2020.2.10,60.07409539397417,
images/pbg_bu_8.png,images/pbg_bu_0.png,166.0,down,6,12,102,8,down,1,1.4905474999977741,sahil_b,001,2020_Dec_09_1502,hue_diff,2020.2.10,60.07409539397417,
images/pbg_bu_6.png,images/pbg_bu_0.png,162.0,down,6,13,103,6,down,1,1.6175068999873474,sahil_b,001,2020_Dec_09_1502,hue_diff,2020.2.10,60.07409539397417,
images/pbg_bu_9.png,images/pbg_bu_0.png,168.0,up,6,14,104,9,up,1,1.438979600003222,sahil_b,001,2020_Dec_09_1502,hue_diff,2020.2.10,60.07409539397417,
images/pbg_bu_2.png,images/pbg_bu_0.png,154.0,up,7,0,105,2,a,0,2.057456499984255,sahil_b,001,2020_Dec_09_1502,hue_diff,2020.2.10,60.07409539397417,
images/pbg_bu_9.png,images/pbg_bu_0.png,168.0,up,7,1,106,9,up,1,1.279265299992403,sahil_b,001,2020_Dec_09_1502,hue_diff,2020.2.10,60.07409539397417,
images/pbg_bu_4.png,images/pbg_bu_0.png,158.0,right,7,2,107,4,right,1,1.4590093999868259,sahil_b,001,2020_Dec_09_1502,hue_diff,2020.2.10,60.07409539397417,
images/pbg_bu_8.png,images/pbg_bu_0.png,166.0,down,7,3,108,8,down,1,1.4349078000232112,sahil_b,001,2020_Dec_09_1502,hue_diff,2020.2.10,60.07409539397417,
images/pbg_bu_7.png,images/pbg_bu_0.png,164.0,right,7,4,109,7,right,1,1.4761603000224568,sahil_b,001,2020_Dec_09_1502,hue_diff,2020.2.10,60.07409539397417,
images/pbg_bu_0.png,images/pbg_bu_0.png,150.0,right,7,5,110,0,a,0,1.7636555999924894,sahil_b,001,2020_Dec_09_1502,hue_diff,2020.2.10,60.07409539397417,
images/pbg_bu_6.png,images/pbg_bu_0.png,162.0,down,7,6,111,6,down,1,1.4713755999982823,sahil_b,001,2020_Dec_09_1502,hue_diff,2020.2.10,60.07409539397417,
images/pbg_bu_14.png,images/pbg_bu_0.png,178.0,right,7,7,112,14,right,1,1.3770539999823086,sahil_b,001,2020_Dec_09_1502,hue_diff,2020.2.10,60.07409539397417,
images/pbg_bu_11.png,images/pbg_bu_0.png,172.0,right,7,8,113,11,right,1,1.4780631999892648,sahil_b,001,2020_Dec_09_1502,hue_diff,2020.2.10,60.07409539397417,
images/pbg_bu_5.png,images/pbg_bu_0.png,160.0,right,7,9,114,5,right,1,1.4906198999960907,sahil_b,001,2020_Dec_09_1502,hue_diff,2020.2.10,60.07409539397417,
images/pbg_bu_3.png,images/pbg_bu_0.png,156.0,right,7,10,115,3,right,1,1.8401636999915354,sahil_b,001,2020_Dec_09_1502,hue_diff,2020.2.10,60.07409539397417,
images/pbg_bu_1.png,images/pbg_bu_0.png,152.0,down,7,11,116,1,a,0,2.446985799993854,sahil_b,001,2020_Dec_09_1502,hue_diff,2020.2.10,60.07409539397417,
images/pbg_bu_12.png,images/pbg_bu_0.png,174.0,right,7,12,117,12,right,1,1.5351389000134077,sahil_b,001,2020_Dec_09_1502,hue_diff,2020.2.10,60.07409539397417,
images/pbg_bu_13.png,images/pbg_bu_0.png,176.0,right,7,13,118,13,right,1,1.6859714999736752,sahil_b,001,2020_Dec_09_1502,hue_diff,2020.2.10,60.07409539397417,
images/pbg_bu_10.png,images/pbg_bu_0.png,170.0,up,7,14,119,10,up,1,1.465229499997804,sahil_b,001,2020_Dec_09_1502,hue_diff,2020.2.10,60.07409539397417,
images/pbg_bu_0.png,images/pbg_bu_0.png,150.0,right,8,0,120,0,a,0,1.7168140000139829,sahil_b,001,2020_Dec_09_1502,hue_diff,2020.2.10,60.07409539397417,
images/pbg_bu_14.png,images/pbg_bu_0.png,178.0,right,8,1,121,14,right,1,1.4635901000001468,sahil_b,001,2020_Dec_09_1502,hue_diff,2020.2.10,60.07409539397417,
images/pbg_bu_5.png,images/pbg_bu_0.png,160.0,right,8,2,122,5,right,1,1.496381700009806,sahil_b,001,2020_Dec_09_1502,hue_diff,2020.2.10,60.07409539397417,
images/pbg_bu_6.png,images/pbg_bu_0.png,162.0,down,8,3,123,6,a,0,2.021961599995848,sahil_b,001,2020_Dec_09_1502,hue_diff,2020.2.10,60.07409539397417,
images/pbg_bu_1.png,images/pbg_bu_0.png,152.0,down,8,4,124,1,a,0,1.4827491999894846,sahil_b,001,2020_Dec_09_1502,hue_diff,2020.2.10,60.07409539397417,
images/pbg_bu_13.png,images/pbg_bu_0.png,176.0,right,8,5,125,13,right,1,1.27529059999506,sahil_b,001,2020_Dec_09_1502,hue_diff,2020.2.10,60.07409539397417,
images/pbg_bu_12.png,images/pbg_bu_0.png,174.0,right,8,6,126,12,right,1,1.2726445999869611,sahil_b,001,2020_Dec_09_1502,hue_diff,2020.2.10,60.07409539397417,
images/pbg_bu_4.png,images/pbg_bu_0.png,158.0,right,8,7,127,4,right,1,1.2730230999877676,sahil_b,001,2020_Dec_09_1502,hue_diff,2020.2.10,60.07409539397417,
images/pbg_bu_2.png,images/pbg_bu_0.png,154.0,up,8,8,128,2,a,0,1.8460544999979902,sahil_b,001,2020_Dec_09_1502,hue_diff,2020.2.10,60.07409539397417,
images/pbg_bu_9.png,images/pbg_bu_0.png,168.0,up,8,9,129,9,up,1,1.432558300002711,sahil_b,001,2020_Dec_09_1502,hue_diff,2020.2.10,60.07409539397417,
images/pbg_bu_11.png,images/pbg_bu_0.png,172.0,right,8,10,130,11,right,1,1.225532899989048,sahil_b,001,2020_Dec_09_1502,hue_diff,2020.2.10,60.07409539397417,
images/pbg_bu_3.png,images/pbg_bu_0.png,156.0,right,8,11,131,3,a,0,2.0320672999951057,sahil_b,001,2020_Dec_09_1502,hue_diff,2020.2.10,60.07409539397417,
images/pbg_bu_8.png,images/pbg_bu_0.png,166.0,down,8,12,132,8,down,1,1.257776600017678,sahil_b,001,2020_Dec_09_1502,hue_diff,2020.2.10,60.07409539397417,
images/pbg_bu_7.png,images/pbg_bu_0.png,164.0,right,8,13,133,7,right,1,1.1960755000181962,sahil_b,001,2020_Dec_09_1502,hue_diff,2020.2.10,60.07409539397417,
images/pbg_bu_10.png,images/pbg_bu_0.png,170.0,up,8,14,134,10,up,1,1.4483089999994263,sahil_b,001,2020_Dec_09_1502,hue_diff,2020.2.10,60.07409539397417,
images/pbg_bu_3.png,images/pbg_bu_0.png,156.0,right,9,0,135,3,a,0,1.5464943000115454,sahil_b,001,2020_Dec_09_1502,hue_diff,2020.2.10,60.07409539397417,
images/pbg_bu_1.png,images/pbg_bu_0.png,152.0,down,9,1,136,1,a,0,1.4917037999839522,sahil_b,001,2020_Dec_09_1502,hue_diff,2020.2.10,60.07409539397417,
images/pbg_bu_11.png,images/pbg_bu_0.png,172.0,right,9,2,137,11,right,1,1.4620683000248391,sahil_b,001,2020_Dec_09_1502,hue_diff,2020.2.10,60.07409539397417,
images/pbg_bu_0.png,images/pbg_bu_0.png,150.0,right,9,3,138,0,a,0,1.733761899988167,sahil_b,001,2020_Dec_09_1502,hue_diff,2020.2.10,60.07409539397417,
images/pbg_bu_12.png,images/pbg_bu_0.png,174.0,right,9,4,139,12,right,1,1.4361638999835122,sahil_b,001,2020_Dec_09_1502,hue_diff,2020.2.10,60.07409539397417,
images/pbg_bu_5.png,images/pbg_bu_0.png,160.0,right,9,5,140,5,right,1,1.5602680000010878,sahil_b,001,2020_Dec_09_1502,hue_diff,2020.2.10,60.07409539397417,
images/pbg_bu_8.png,images/pbg_bu_0.png,166.0,down,9,6,141,8,down,1,1.4887557000038214,sahil_b,001,2020_Dec_09_1502,hue_diff,2020.2.10,60.07409539397417,
images/pbg_bu_6.png,images/pbg_bu_0.png,162.0,down,9,7,142,6,down,1,1.479800900007831,sahil_b,001,2020_Dec_09_1502,hue_diff,2020.2.10,60.07409539397417,
images/pbg_bu_14.png,images/pbg_bu_0.png,178.0,right,9,8,143,14,right,1,1.499125800008187,sahil_b,001,2020_Dec_09_1502,hue_diff,2020.2.10,60.07409539397417,
images/pbg_bu_2.png,images/pbg_bu_0.png,154.0,up,9,9,144,2,a,0,1.9830860999936704,sahil_b,001,2020_Dec_09_1502,hue_diff,2020.2.10,60.07409539397417,
images/pbg_bu_9.png,images/pbg_bu_0.png,168.0,up,9,10,145,9,up,1,1.5012369000178296,sahil_b,001,2020_Dec_09_1502,hue_diff,2020.2.10,60.07409539397417,
images/pbg_bu_13.png,images/pbg_bu_0.png,176.0,right,9,11,146,13,right,1,1.5115726000221912,sahil_b,001,2020_Dec_09_1502,hue_diff,2020.2.10,60.07409539397417,
images/pbg_bu_7.png,images/pbg_bu_0.png,164.0,right,9,12,147,7,right,1,1.5039448000025004,sahil_b,001,2020_Dec_09_1502,hue_diff,2020.2.10,60.07409539397417,
images/pbg_bu_4.png,images/pbg_bu_0.png,158.0,right,9,13,148,4,right,1,1.6801855000085197,sahil_b,001,2020_Dec_09_1502,hue_diff,2020.2.10,60.07409539397417,
images/pbg_bu_10.png,images/pbg_bu_0.png,170.0,up,9,14,149,10,up,1,1.6185240999911912,sahil_b,001,2020_Dec_09_1502,hue_diff,2020.2.10,60.07409539397417,
images/pbg_bu_7.png,images/pbg_bu_0.png,164.0,right,10,0,150,7,right,1,1.5394060999969952,sahil_b,001,2020_Dec_09_1502,hue_diff,2020.2.10,60.07409539397417,
images/pbg_bu_1.png,images/pbg_bu_0.png,152.0,down,10,1,151,1,a,0,1.8010042000096291,sahil_b,001,2020_Dec_09_1502,hue_diff,2020.2.10,60.07409539397417,
images/pbg_bu_5.png,images/pbg_bu_0.png,160.0,right,10,2,152,5,right,1,1.5631275000050664,sahil_b,001,2020_Dec_09_1502,hue_diff,2020.2.10,60.07409539397417,
images/pbg_bu_2.png,images/pbg_bu_0.png,154.0,up,10,3,153,2,a,0,1.9662444000132382,sahil_b,001,2020_Dec_09_1502,hue_diff,2020.2.10,60.07409539397417,
images/pbg_bu_8.png,images/pbg_bu_0.png,166.0,down,10,4,154,8,down,1,1.5426857999991626,sahil_b,001,2020_Dec_09_1502,hue_diff,2020.2.10,60.07409539397417,
images/pbg_bu_11.png,images/pbg_bu_0.png,172.0,right,10,5,155,11,right,1,1.443010899994988,sahil_b,001,2020_Dec_09_1502,hue_diff,2020.2.10,60.07409539397417,
images/pbg_bu_9.png,images/pbg_bu_0.png,168.0,up,10,6,156,9,up,1,1.4606493999890517,sahil_b,001,2020_Dec_09_1502,hue_diff,2020.2.10,60.07409539397417,
images/pbg_bu_10.png,images/pbg_bu_0.png,170.0,up,10,7,157,10,up,1,1.4701125999854412,sahil_b,001,2020_Dec_09_1502,hue_diff,2020.2.10,60.07409539397417,
images/pbg_bu_13.png,images/pbg_bu_0.png,176.0,right,10,8,158,13,right,1,1.4917103000043426,sahil_b,001,2020_Dec_09_1502,hue_diff,2020.2.10,60.07409539397417,
images/pbg_bu_12.png,images/pbg_bu_0.png,174.0,right,10,9,159,12,right,1,1.513749400008237,sahil_b,001,2020_Dec_09_1502,hue_diff,2020.2.10,60.07409539397417,
images/pbg_bu_0.png,images/pbg_bu_0.png,150.0,right,10,10,160,0,a,0,2.028630799992243,sahil_b,001,2020_Dec_09_1502,hue_diff,2020.2.10,60.07409539397417,
images/pbg_bu_4.png,images/pbg_bu_0.png,158.0,right,10,11,161,4,right,1,1.5501703000045381,sahil_b,001,2020_Dec_09_1502,hue_diff,2020.2.10,60.07409539397417,
images/pbg_bu_14.png,images/pbg_bu_0.png,178.0,right,10,12,162,14,right,1,1.5693602999963332,sahil_b,001,2020_Dec_09_1502,hue_diff,2020.2.10,60.07409539397417,
images/pbg_bu_6.png,images/pbg_bu_0.png,162.0,down,10,13,163,6,down,1,1.494459600013215,sahil_b,001,2020_Dec_09_1502,hue_diff,2020.2.10,60.07409539397417,
images/pbg_bu_3.png,images/pbg_bu_0.png,156.0,right,10,14,164,3,a,0,1.7282264999812469,sahil_b,001,2020_Dec_09_1502,hue_diff,2020.2.10,60.07409539397417,
images/pbg_bu_6.png,images/pbg_bu_0.png,162.0,down,11,0,165,6,down,1,1.4363511999836192,sahil_b,001,2020_Dec_09_1502,hue_diff,2020.2.10,60.07409539397417,
images/pbg_bu_7.png,images/pbg_bu_0.png,164.0,right,11,1,166,7,right,1,1.498128600011114,sahil_b,001,2020_Dec_09_1502,hue_diff,2020.2.10,60.07409539397417,
images/pbg_bu_4.png,images/pbg_bu_0.png,158.0,right,11,2,167,4,a,0,1.7860210000071675,sahil_b,001,2020_Dec_09_1502,hue_diff,2020.2.10,60.07409539397417,
images/pbg_bu_0.png,images/pbg_bu_0.png,150.0,right,11,3,168,0,a,0,1.9061954000208061,sahil_b,001,2020_Dec_09_1502,hue_diff,2020.2.10,60.07409539397417,
images/pbg_bu_2.png,images/pbg_bu_0.png,154.0,up,11,4,169,2,a,0,1.8014876999950502,sahil_b,001,2020_Dec_09_1502,hue_diff,2020.2.10,60.07409539397417,
images/pbg_bu_8.png,images/pbg_bu_0.png,166.0,down,11,5,170,8,a,0,4.653781900007743,sahil_b,001,2020_Dec_09_1502,hue_diff,2020.2.10,60.07409539397417,
images/pbg_bu_12.png,images/pbg_bu_0.png,174.0,right,11,6,171,12,a,0,2.882630500011146,sahil_b,001,2020_Dec_09_1502,hue_diff,2020.2.10,60.07409539397417,
images/pbg_bu_1.png,images/pbg_bu_0.png,152.0,down,11,7,172,1,a,0,2.1198500000173226,sahil_b,001,2020_Dec_09_1502,hue_diff,2020.2.10,60.07409539397417,
images/pbg_bu_10.png,images/pbg_bu_0.png,170.0,up,11,8,173,10,up,1,1.4100201999826822,sahil_b,001,2020_Dec_09_1502,hue_diff,2020.2.10,60.07409539397417,
images/pbg_bu_3.png,images/pbg_bu_0.png,156.0,right,11,9,174,3,right,1,1.4540903999877628,sahil_b,001,2020_Dec_09_1502,hue_diff,2020.2.10,60.07409539397417,
images/pbg_bu_11.png,images/pbg_bu_0.png,172.0,right,11,10,175,11,right,1,1.6232178999925964,sahil_b,001,2020_Dec_09_1502,hue_diff,2020.2.10,60.07409539397417,
images/pbg_bu_5.png,images/pbg_bu_0.png,160.0,right,11,11,176,5,a,0,2.3430992000212427,sahil_b,001,2020_Dec_09_1502,hue_diff,2020.2.10,60.07409539397417,
images/pbg_bu_13.png,images/pbg_bu_0.png,176.0,right,11,12,177,13,right,1,1.6908498000120744,sahil_b,001,2020_Dec_09_1502,hue_diff,2020.2.10,60.07409539397417,
images/pbg_bu_9.png,images/pbg_bu_0.png,168.0,up,11,13,178,9,up,1,1.5546867999946699,sahil_b,001,2020_Dec_09_1502,hue_diff,2020.2.10,60.07409539397417,
images/pbg_bu_14.png,images/pbg_bu_0.png,178.0,right,11,14,179,14,right,1,1.5275277000037022,sahil_b,001,2020_Dec_09_1502,hue_diff,2020.2.10,60.07409539397417,
images/pbg_bu_14.png,images/pbg_bu_0.png,178.0,right,12,0,180,14,right,1,1.5361088000063319,sahil_b,001,2020_Dec_09_1502,hue_diff,2020.2.10,60.07409539397417,
images/pbg_bu_4.png,images/pbg_bu_0.png,158.0,right,12,1,181,4,right,1,1.706337200012058,sahil_b,001,2020_Dec_09_1502,hue_diff,2020.2.10,60.07409539397417,
images/pbg_bu_0.png,images/pbg_bu_0.png,150.0,right,12,2,182,0,a,0,1.6940969999996014,sahil_b,001,2020_Dec_09_1502,hue_diff,2020.2.10,60.07409539397417,
images/pbg_bu_13.png,images/pbg_bu_0.png,176.0,right,12,3,183,13,right,1,1.5162276000191923,sahil_b,001,2020_Dec_09_1502,hue_diff,2020.2.10,60.07409539397417,
images/pbg_bu_7.png,images/pbg_bu_0.png,164.0,right,12,4,184,7,right,1,1.5219803999934811,sahil_b,001,2020_Dec_09_1502,hue_diff,2020.2.10,60.07409539397417,
images/pbg_bu_1.png,images/pbg_bu_0.png,152.0,down,12,5,185,1,a,0,2.6102877000230365,sahil_b,001,2020_Dec_09_1502,hue_diff,2020.2.10,60.07409539397417,
images/pbg_bu_8.png,images/pbg_bu_0.png,166.0,down,12,6,186,8,down,1,1.4773942999891005,sahil_b,001,2020_Dec_09_1502,hue_diff,2020.2.10,60.07409539397417,
images/pbg_bu_2.png,images/pbg_bu_0.png,154.0,up,12,7,187,2,a,0,1.824263799993787,sahil_b,001,2020_Dec_09_1502,hue_diff,2020.2.10,60.07409539397417,
images/pbg_bu_11.png,images/pbg_bu_0.png,172.0,right,12,8,188,11,right,1,1.3383621000102721,sahil_b,001,2020_Dec_09_1502,hue_diff,2020.2.10,60.07409539397417,
images/pbg_bu_6.png,images/pbg_bu_0.png,162.0,down,12,9,189,6,down,1,1.5001598999951966,sahil_b,001,2020_Dec_09_1502,hue_diff,2020.2.10,60.07409539397417,
images/pbg_bu_3.png,images/pbg_bu_0.png,156.0,right,12,10,190,3,right,1,1.7749665000010282,sahil_b,001,2020_Dec_09_1502,hue_diff,2020.2.10,60.07409539397417,
images/pbg_bu_12.png,images/pbg_bu_0.png,174.0,right,12,11,191,12,right,1,1.4599444000050426,sahil_b,001,2020_Dec_09_1502,hue_diff,2020.2.10,60.07409539397417,
images/pbg_bu_5.png,images/pbg_bu_0.png,160.0,right,12,12,192,5,right,1,1.5421974000055343,sahil_b,001,2020_Dec_09_1502,hue_diff,2020.2.10,60.07409539397417,
images/pbg_bu_10.png,images/pbg_bu_0.png,170.0,up,12,13,193,10,up,1,1.4982779000129085,sahil_b,001,2020_Dec_09_1502,hue_diff,2020.2.10,60.07409539397417,
images/pbg_bu_9.png,images/pbg_bu_0.png,168.0,up,12,14,194,9,up,1,1.410991400014609,sahil_b,001,2020_Dec_09_1502,hue_diff,2020.2.10,60.07409539397417,
images/pbg_bu_11.png,images/pbg_bu_0.png,172.0,right,13,0,195,11,right,1,1.3590928000048734,sahil_b,001,2020_Dec_09_1502,hue_diff,2020.2.10,60.07409539397417,
images/pbg_bu_13.png,images/pbg_bu_0.png,176.0,right,13,1,196,13,right,1,1.462452099978691,sahil_b,001,2020_Dec_09_1502,hue_diff,2020.2.10,60.07409539397417,
images/pbg_bu_10.png,images/pbg_bu_0.png,170.0,up,13,2,197,10,up,1,1.633666000008816,sahil_b,001,2020_Dec_09_1502,hue_diff,2020.2.10,60.07409539397417,
images/pbg_bu_0.png,images/pbg_bu_0.png,150.0,right,13,3,198,0,a,0,1.6476667999813799,sahil_b,001,2020_Dec_09_1502,hue_diff,2020.2.10,60.07409539397417,
images/pbg_bu_1.png,images/pbg_bu_0.png,152.0,down,13,4,199,1,a,0,1.618850900005782,sahil_b,001,2020_Dec_09_1502,hue_diff,2020.2.10,60.07409539397417,
images/pbg_bu_5.png,images/pbg_bu_0.png,160.0,right,13,5,200,5,right,1,1.4567382000095677,sahil_b,001,2020_Dec_09_1502,hue_diff,2020.2.10,60.07409539397417,
images/pbg_bu_2.png,images/pbg_bu_0.png,154.0,up,13,6,201,2,a,0,1.6568756999913603,sahil_b,001,2020_Dec_09_1502,hue_diff,2020.2.10,60.07409539397417,
images/pbg_bu_3.png,images/pbg_bu_0.png,156.0,right,13,7,202,3,right,1,1.3958716000197455,sahil_b,001,2020_Dec_09_1502,hue_diff,2020.2.10,60.07409539397417,
images/pbg_bu_12.png,images/pbg_bu_0.png,174.0,right,13,8,203,12,right,1,1.456823299988173,sahil_b,001,2020_Dec_09_1502,hue_diff,2020.2.10,60.07409539397417,
images/pbg_bu_8.png,images/pbg_bu_0.png,166.0,down,13,9,204,8,down,1,1.5504048000148032,sahil_b,001,2020_Dec_09_1502,hue_diff,2020.2.10,60.07409539397417,
images/pbg_bu_9.png,images/pbg_bu_0.png,168.0,up,13,10,205,9,up,1,1.5005944999866188,sahil_b,001,2020_Dec_09_1502,hue_diff,2020.2.10,60.07409539397417,
images/pbg_bu_7.png,images/pbg_bu_0.png,164.0,right,13,11,206,7,right,1,1.5029141000122763,sahil_b,001,2020_Dec_09_1502,hue_diff,2020.2.10,60.07409539397417,
images/pbg_bu_14.png,images/pbg_bu_0.png,178.0,right,13,12,207,14,right,1,1.45343110000249,sahil_b,001,2020_Dec_09_1502,hue_diff,2020.2.10,60.07409539397417,
images/pbg_bu_4.png,images/pbg_bu_0.png,158.0,right,13,13,208,4,a,0,2.5729164000076707,sahil_b,001,2020_Dec_09_1502,hue_diff,2020.2.10,60.07409539397417,
images/pbg_bu_6.png,images/pbg_bu_0.png,162.0,down,13,14,209,6,a,0,2.0757549999980256,sahil_b,001,2020_Dec_09_1502,hue_diff,2020.2.10,60.07409539397417,
images/pbg_bu_6.png,images/pbg_bu_0.png,162.0,down,14,0,210,6,down,1,1.5158830000145826,sahil_b,001,2020_Dec_09_1502,hue_diff,2020.2.10,60.07409539397417,
images/pbg_bu_14.png,images/pbg_bu_0.png,178.0,right,14,1,211,14,right,1,1.5728365999821108,sahil_b,001,2020_Dec_09_1502,hue_diff,2020.2.10,60.07409539397417,
images/pbg_bu_11.png,images/pbg_bu_0.png,172.0,right,14,2,212,11,right,1,2.4629605000081938,sahil_b,001,2020_Dec_09_1502,hue_diff,2020.2.10,60.07409539397417,
images/pbg_bu_9.png,images/pbg_bu_0.png,168.0,up,14,3,213,9,up,1,1.4492985999968369,sahil_b,001,2020_Dec_09_1502,hue_diff,2020.2.10,60.07409539397417,
images/pbg_bu_1.png,images/pbg_bu_0.png,152.0,down,14,4,214,1,a,0,1.7668921000149567,sahil_b,001,2020_Dec_09_1502,hue_diff,2020.2.10,60.07409539397417,
images/pbg_bu_4.png,images/pbg_bu_0.png,158.0,right,14,5,215,4,right,1,1.4670543000102043,sahil_b,001,2020_Dec_09_1502,hue_diff,2020.2.10,60.07409539397417,
images/pbg_bu_13.png,images/pbg_bu_0.png,176.0,right,14,6,216,13,right,1,1.4887021000031382,sahil_b,001,2020_Dec_09_1502,hue_diff,2020.2.10,60.07409539397417,
images/pbg_bu_10.png,images/pbg_bu_0.png,170.0,up,14,7,217,10,up,1,1.468902499997057,sahil_b,001,2020_Dec_09_1502,hue_diff,2020.2.10,60.07409539397417,
images/pbg_bu_5.png,images/pbg_bu_0.png,160.0,right,14,8,218,5,right,1,1.5903150999802165,sahil_b,001,2020_Dec_09_1502,hue_diff,2020.2.10,60.07409539397417,
images/pbg_bu_3.png,images/pbg_bu_0.png,156.0,right,14,9,219,3,a,0,1.6706503999885172,sahil_b,001,2020_Dec_09_1502,hue_diff,2020.2.10,60.07409539397417,
images/pbg_bu_0.png,images/pbg_bu_0.png,150.0,right,14,10,220,0,a,0,2.729417900001863,sahil_b,001,2020_Dec_09_1502,hue_diff,2020.2.10,60.07409539397417,
images/pbg_bu_2.png,images/pbg_bu_0.png,154.0,up,14,11,221,2,a,0,1.582278399990173,sahil_b,001,2020_Dec_09_1502,hue_diff,2020.2.10,60.07409539397417,
images/pbg_bu_12.png,images/pbg_bu_0.png,174.0,right,14,12,222,12,right,1,1.0980767000000924,sahil_b,001,2020_Dec_09_1502,hue_diff,2020.2.10,60.07409539397417,
images/pbg_bu_7.png,images/pbg_bu_0.png,164.0,right,14,13,223,7,right,1,1.467230300011579,sahil_b,001,2020_Dec_09_1502,hue_diff,2020.2.10,60.07409539397417,
images/pbg_bu_8.png,images/pbg_bu_0.png,166.0,down,14,14,224,8,down,1,1.478888999990886,sahil_b,001,2020_Dec_09_1502,hue_diff,2020.2.10,60.07409539397417,
images/pbg_bu_10.png,images/pbg_bu_0.png,170.0,up,15,0,225,10,up,1,1.5187085999932606,sahil_b,001,2020_Dec_09_1502,hue_diff,2020.2.10,60.07409539397417,
images/pbg_bu_7.png,images/pbg_bu_0.png,164.0,right,15,1,226,7,right,1,1.4454940999858081,sahil_b,001,2020_Dec_09_1502,hue_diff,2020.2.10,60.07409539397417,
images/pbg_bu_13.png,images/pbg_bu_0.png,176.0,right,15,2,227,13,right,1,1.543398600013461,sahil_b,001,2020_Dec_09_1502,hue_diff,2020.2.10,60.07409539397417,
images/pbg_bu_9.png,images/pbg_bu_0.png,168.0,up,15,3,228,9,up,1,1.4714247999945655,sahil_b,001,2020_Dec_09_1502,hue_diff,2020.2.10,60.07409539397417,
images/pbg_bu_0.png,images/pbg_bu_0.png,150.0,right,15,4,229,0,a,0,2.4389582999865524,sahil_b,001,2020_Dec_09_1502,hue_diff,2020.2.10,60.07409539397417,
images/pbg_bu_6.png,images/pbg_bu_0.png,162.0,down,15,5,230,6,down,1,1.502036699996097,sahil_b,001,2020_Dec_09_1502,hue_diff,2020.2.10,60.07409539397417,
images/pbg_bu_2.png,images/pbg_bu_0.png,154.0,up,15,6,231,2,a,0,1.810805099987192,sahil_b,001,2020_Dec_09_1502,hue_diff,2020.2.10,60.07409539397417,
images/pbg_bu_4.png,images/pbg_bu_0.png,158.0,right,15,7,232,4,right,1,1.5229906999738887,sahil_b,001,2020_Dec_09_1502,hue_diff,2020.2.10,60.07409539397417,
images/pbg_bu_14.png,images/pbg_bu_0.png,178.0,right,15,8,233,14,right,1,1.7186049000010826,sahil_b,001,2020_Dec_09_1502,hue_diff,2020.2.10,60.07409539397417,
images/pbg_bu_5.png,images/pbg_bu_0.png,160.0,right,15,9,234,5,right,1,1.586651499994332,sahil_b,001,2020_Dec_09_1502,hue_diff,2020.2.10,60.07409539397417,
images/pbg_bu_8.png,images/pbg_bu_0.png,166.0,down,15,10,235,8,down,1,1.6011461000016425,sahil_b,001,2020_Dec_09_1502,hue_diff,2020.2.10,60.07409539397417,
images/pbg_bu_12.png,images/pbg_bu_0.png,174.0,right,15,11,236,12,right,1,1.5835869999718852,sahil_b,001,2020_Dec_09_1502,hue_diff,2020.2.10,60.07409539397417,
images/pbg_bu_11.png,images/pbg_bu_0.png,172.0,right,15,12,237,11,right,1,1.4982794000243302,sahil_b,001,2020_Dec_09_1502,hue_diff,2020.2.10,60.07409539397417,
images/pbg_bu_1.png,images/pbg_bu_0.png,152.0,down,15,13,238,1,a,0,1.9184228999947663,sahil_b,001,2020_Dec_09_1502,hue_diff,2020.2.10,60.07409539397417,
images/pbg_bu_3.png,images/pbg_bu_0.png,156.0,right,15,14,239,3,right,1,1.8234464999986812,sahil_b,001,2020_Dec_09_1502,hue_diff,2020.2.10,60.07409539397417,
images/pbg_bu_0.png,images/pbg_bu_0.png,150.0,right,16,0,240,0,a,0,2.019151399988914,sahil_b,001,2020_Dec_09_1502,hue_diff,2020.2.10,60.07409539397417,
images/pbg_bu_8.png,images/pbg_bu_0.png,166.0,down,16,1,241,8,down,1,1.5831355999980588,sahil_b,001,2020_Dec_09_1502,hue_diff,2020.2.10,60.07409539397417,
images/pbg_bu_3.png,images/pbg_bu_0.png,156.0,right,16,2,242,3,a,0,2.216657699987991,sahil_b,001,2020_Dec_09_1502,hue_diff,2020.2.10,60.07409539397417,
images/pbg_bu_14.png,images/pbg_bu_0.png,178.0,right,16,3,243,14,right,1,1.5835657000134233,sahil_b,001,2020_Dec_09_1502,hue_diff,2020.2.10,60.07409539397417,
images/pbg_bu_5.png,images/pbg_bu_0.png,160.0,right,16,4,244,5,right,1,1.5154508000123315,sahil_b,001,2020_Dec_09_1502,hue_diff,2020.2.10,60.07409539397417,
images/pbg_bu_9.png,images/pbg_bu_0.png,168.0,up,16,5,245,9,up,1,1.507987699995283,sahil_b,001,2020_Dec_09_1502,hue_diff,2020.2.10,60.07409539397417,
images/pbg_bu_11.png,images/pbg_bu_0.png,172.0,right,16,6,246,11,right,1,1.4936242000258062,sahil_b,001,2020_Dec_09_1502,hue_diff,2020.2.10,60.07409539397417,
images/pbg_bu_10.png,images/pbg_bu_0.png,170.0,up,16,7,247,10,up,1,1.5152869999874383,sahil_b,001,2020_Dec_09_1502,hue_diff,2020.2.10,60.07409539397417,
images/pbg_bu_12.png,images/pbg_bu_0.png,174.0,right,16,8,248,12,right,1,1.4875467999954708,sahil_b,001,2020_Dec_09_1502,hue_diff,2020.2.10,60.07409539397417,
images/pbg_bu_4.png,images/pbg_bu_0.png,158.0,right,16,9,249,4,a,0,2.2199171999818645,sahil_b,001,2020_Dec_09_1502,hue_diff,2020.2.10,60.07409539397417,
images/pbg_bu_13.png,images/pbg_bu_0.png,176.0,right,16,10,250,13,right,1,1.5428909999900497,sahil_b,001,2020_Dec_09_1502,hue_diff,2020.2.10,60.07409539397417,
images/pbg_bu_7.png,images/pbg_bu_0.png,164.0,right,16,11,251,7,right,1,1.5670335000031628,sahil_b,001,2020_Dec_09_1502,hue_diff,2020.2.10,60.07409539397417,
images/pbg_bu_2.png,images/pbg_bu_0.png,154.0,up,16,12,252,2,a,0,1.7411351000191644,sahil_b,001,2020_Dec_09_1502,hue_diff,2020.2.10,60.07409539397417,
images/pbg_bu_1.png,images/pbg_bu_0.png,152.0,down,16,13,253,1,a,0,1.7077820999838877,sahil_b,001,2020_Dec_09_1502,hue_diff,2020.2.10,60.07409539397417,
images/pbg_bu_6.png,images/pbg_bu_0.png,162.0,down,16,14,254,6,down,1,1.5242008999921381,sahil_b,001,2020_Dec_09_1502,hue_diff,2020.2.10,60.07409539397417,
images/pbg_bu_10.png,images/pbg_bu_0.png,170.0,up,17,0,255,10,up,1,1.5407669999985956,sahil_b,001,2020_Dec_09_1502,hue_diff,2020.2.10,60.07409539397417,
images/pbg_bu_1.png,images/pbg_bu_0.png,152.0,down,17,1,256,1,a,0,1.911061899998458,sahil_b,001,2020_Dec_09_1502,hue_diff,2020.2.10,60.07409539397417,
images/pbg_bu_12.png,images/pbg_bu_0.png,174.0,right,17,2,257,12,right,1,1.8016032000014093,sahil_b,001,2020_Dec_09_1502,hue_diff,2020.2.10,60.07409539397417,
images/pbg_bu_7.png,images/pbg_bu_0.png,164.0,right,17,3,258,7,right,1,1.8260051000106614,sahil_b,001,2020_Dec_09_1502,hue_diff,2020.2.10,60.07409539397417,
images/pbg_bu_0.png,images/pbg_bu_0.png,150.0,right,17,4,259,0,a,0,1.782261100015603,sahil_b,001,2020_Dec_09_1502,hue_diff,2020.2.10,60.07409539397417,
images/pbg_bu_13.png,images/pbg_bu_0.png,176.0,right,17,5,260,13,right,1,1.4834530999942217,sahil_b,001,2020_Dec_09_1502,hue_diff,2020.2.10,60.07409539397417,
images/pbg_bu_3.png,images/pbg_bu_0.png,156.0,right,17,6,261,3,a,0,1.9543321000237484,sahil_b,001,2020_Dec_09_1502,hue_diff,2020.2.10,60.07409539397417,
images/pbg_bu_8.png,images/pbg_bu_0.png,166.0,down,17,7,262,8,down,1,1.5045638000010513,sahil_b,001,2020_Dec_09_1502,hue_diff,2020.2.10,60.07409539397417,
images/pbg_bu_9.png,images/pbg_bu_0.png,168.0,up,17,8,263,9,up,1,1.7206481999892276,sahil_b,001,2020_Dec_09_1502,hue_diff,2020.2.10,60.07409539397417,
images/pbg_bu_11.png,images/pbg_bu_0.png,172.0,right,17,9,264,11,right,1,1.5140129999781493,sahil_b,001,2020_Dec_09_1502,hue_diff,2020.2.10,60.07409539397417,
images/pbg_bu_4.png,images/pbg_bu_0.png,158.0,right,17,10,265,4,a,0,2.045764299982693,sahil_b,001,2020_Dec_09_1502,hue_diff,2020.2.10,60.07409539397417,
images/pbg_bu_2.png,images/pbg_bu_0.png,154.0,up,17,11,266,2,a,0,1.792069100018125,sahil_b,001,2020_Dec_09_1502,hue_diff,2020.2.10,60.07409539397417,
images/pbg_bu_6.png,images/pbg_bu_0.png,162.0,down,17,12,267,6,a,0,2.158209299988812,sahil_b,001,2020_Dec_09_1502,hue_diff,2020.2.10,60.07409539397417,
images/pbg_bu_14.png,images/pbg_bu_0.png,178.0,right,17,13,268,14,right,1,1.4797211000113748,sahil_b,001,2020_Dec_09_1502,hue_diff,2020.2.10,60.07409539397417,
images/pbg_bu_5.png,images/pbg_bu_0.png,160.0,right,17,14,269,5,right,1,1.4760830999875907,sahil_b,001,2020_Dec_09_1502,hue_diff,2020.2.10,60.07409539397417,
images/pbg_bu_13.png,images/pbg_bu_0.png,176.0,right,18,0,270,13,right,1,1.4640436000190675,sahil_b,001,2020_Dec_09_1502,hue_diff,2020.2.10,60.07409539397417,
images/pbg_bu_6.png,images/pbg_bu_0.png,162.0,down,18,1,271,6,down,1,1.5073014000081457,sahil_b,001,2020_Dec_09_1502,hue_diff,2020.2.10,60.07409539397417,
images/pbg_bu_4.png,images/pbg_bu_0.png,158.0,right,18,2,272,4,right,1,1.4624804999912158,sahil_b,001,2020_Dec_09_1502,hue_diff,2020.2.10,60.07409539397417,
images/pbg_bu_11.png,images/pbg_bu_0.png,172.0,right,18,3,273,11,right,1,1.4442131000105292,sahil_b,001,2020_Dec_09_1502,hue_diff,2020.2.10,60.07409539397417,
images/pbg_bu_2.png,images/pbg_bu_0.png,154.0,up,18,4,274,2,a,0,1.7256732000096235,sahil_b,001,2020_Dec_09_1502,hue_diff,2020.2.10,60.07409539397417,
images/pbg_bu_10.png,images/pbg_bu_0.png,170.0,up,18,5,275,10,up,1,1.4511022999940906,sahil_b,001,2020_Dec_09_1502,hue_diff,2020.2.10,60.07409539397417,
images/pbg_bu_0.png,images/pbg_bu_0.png,150.0,right,18,6,276,0,a,0,1.496426400000928,sahil_b,001,2020_Dec_09_1502,hue_diff,2020.2.10,60.07409539397417,
images/pbg_bu_7.png,images/pbg_bu_0.png,164.0,right,18,7,277,7,right,1,1.489305199997034,sahil_b,001,2020_Dec_09_1502,hue_diff,2020.2.10,60.07409539397417,
images/pbg_bu_9.png,images/pbg_bu_0.png,168.0,up,18,8,278,9,up,1,1.4451190000108909,sahil_b,001,2020_Dec_09_1502,hue_diff,2020.2.10,60.07409539397417,
images/pbg_bu_8.png,images/pbg_bu_0.png,166.0,down,18,9,279,8,down,1,1.4645928000099957,sahil_b,001,2020_Dec_09_1502,hue_diff,2020.2.10,60.07409539397417,
images/pbg_bu_5.png,images/pbg_bu_0.png,160.0,right,18,10,280,5,right,1,1.473136299988255,sahil_b,001,2020_Dec_09_1502,hue_diff,2020.2.10,60.07409539397417,
images/pbg_bu_14.png,images/pbg_bu_0.png,178.0,right,18,11,281,14,right,1,1.5139999999955762,sahil_b,001,2020_Dec_09_1502,hue_diff,2020.2.10,60.07409539397417,
images/pbg_bu_12.png,images/pbg_bu_0.png,174.0,right,18,12,282,12,right,1,1.5235006999864709,sahil_b,001,2020_Dec_09_1502,hue_diff,2020.2.10,60.07409539397417,
images/pbg_bu_3.png,images/pbg_bu_0.png,156.0,right,18,13,283,3,a,0,1.6415556000138167,sahil_b,001,2020_Dec_09_1502,hue_diff,2020.2.10,60.07409539397417,
images/pbg_bu_1.png,images/pbg_bu_0.png,152.0,down,18,14,284,1,a,0,1.5448841000034008,sahil_b,001,2020_Dec_09_1502,hue_diff,2020.2.10,60.07409539397417,
images/pbg_bu_14.png,images/pbg_bu_0.png,178.0,right,19,0,285,14,right,1,1.4920978000154719,sahil_b,001,2020_Dec_09_1502,hue_diff,2020.2.10,60.07409539397417,
images/pbg_bu_6.png,images/pbg_bu_0.png,162.0,down,19,1,286,6,down,1,1.520117800013395,sahil_b,001,2020_Dec_09_1502,hue_diff,2020.2.10,60.07409539397417,
images/pbg_bu_0.png,images/pbg_bu_0.png,150.0,right,19,2,287,0,a,0,1.6368125999870244,sahil_b,001,2020_Dec_09_1502,hue_diff,2020.2.10,60.07409539397417,
images/pbg_bu_13.png,images/pbg_bu_0.png,176.0,right,19,3,288,13,right,1,1.5238119999994524,sahil_b,001,2020_Dec_09_1502,hue_diff,2020.2.10,60.07409539397417,
images/pbg_bu_7.png,images/pbg_bu_0.png,164.0,right,19,4,289,7,right,1,1.4980221999867354,sahil_b,001,2020_Dec_09_1502,hue_diff,2020.2.10,60.07409539397417,
images/pbg_bu_5.png,images/pbg_bu_0.png,160.0,right,19,5,290,5,right,1,1.5194358000007924,sahil_b,001,2020_Dec_09_1502,hue_diff,2020.2.10,60.07409539397417,
images/pbg_bu_3.png,images/pbg_bu_0.png,156.0,right,19,6,291,3,right,1,1.4486891999840736,sahil_b,001,2020_Dec_09_1502,hue_diff,2020.2.10,60.07409539397417,
images/pbg_bu_9.png,images/pbg_bu_0.png,168.0,up,19,7,292,9,up,1,1.4847729000030085,sahil_b,001,2020_Dec_09_1502,hue_diff,2020.2.10,60.07409539397417,
images/pbg_bu_12.png,images/pbg_bu_0.png,174.0,right,19,8,293,12,right,1,1.5236464999907184,sahil_b,001,2020_Dec_09_1502,hue_diff,2020.2.10,60.07409539397417,
images/pbg_bu_11.png,images/pbg_bu_0.png,172.0,right,19,9,294,11,right,1,1.4722787000064272,sahil_b,001,2020_Dec_09_1502,hue_diff,2020.2.10,60.07409539397417,
images/pbg_bu_4.png,images/pbg_bu_0.png,158.0,right,19,10,295,4,right,1,1.4719048000115436,sahil_b,001,2020_Dec_09_1502,hue_diff,2020.2.10,60.07409539397417,
images/pbg_bu_10.png,images/pbg_bu_0.png,170.0,up,19,11,296,10,up,1,1.4429380999936257,sahil_b,001,2020_Dec_09_1502,hue_diff,2020.2.10,60.07409539397417,
images/pbg_bu_8.png,images/pbg_bu_0.png,166.0,down,19,12,297,8,down,1,1.4443731000064872,sahil_b,001,2020_Dec_09_1502,hue_diff,2020.2.10,60.07409539397417,
images/pbg_bu_2.png,images/pbg_bu_0.png,154.0,up,19,13,298,2,a,0,1.7504141999816056,sahil_b,001,2020_Dec_09_1502,hue_diff,2020.2.10,60.07409539397417,
images/pbg_bu_1.png,images/pbg_bu_0.png,152.0,down,19,14,299,1,a,0,1.5621931000205223,sahil_b,001,2020_Dec_09_1502,hue_diff,2020.2.10,60.07409539397417,
