File,BGbase,Color_change,CorrAns,trials.thisRepN,trials.thisTrialN,trials.thisN,trials.thisIndex,key_resp.keys,key_resp.corr,key_resp.rt,participant,session,date,expName,psychopyVersion,frameRate,
images/pbg_ru_12.png,images/pbg_ru_0.png,174.0,down,0,0,0,12,down,1,1.6792566000076476,sahil_r,001,2020_Dec_09_1525,hue_diff,2020.2.10,59.993580686875895,
images/pbg_ru_1.png,images/pbg_ru_0.png,152.0,down,0,1,1,1,a,0,2.272979600005783,sahil_r,001,2020_Dec_09_1525,hue_diff,2020.2.10,59.993580686875895,
images/pbg_ru_0.png,images/pbg_ru_0.png,150.0,up,0,2,2,0,a,0,1.7483933000185061,sahil_r,001,2020_Dec_09_1525,hue_diff,2020.2.10,59.993580686875895,
images/pbg_ru_4.png,images/pbg_ru_0.png,158.0,left,0,3,3,4,left,1,1.4653449000034016,sahil_r,001,2020_Dec_09_1525,hue_diff,2020.2.10,59.993580686875895,
images/pbg_ru_3.png,images/pbg_ru_0.png,156.0,down,0,4,4,3,down,1,1.6367630999884568,sahil_r,001,2020_Dec_09_1525,hue_diff,2020.2.10,59.993580686875895,
images/pbg_ru_7.png,images/pbg_ru_0.png,164.0,up,0,5,5,7,up,1,1.4889527999912389,sahil_r,001,2020_Dec_09_1525,hue_diff,2020.2.10,59.993580686875895,
images/pbg_ru_9.png,images/pbg_ru_0.png,168.0,right,0,6,6,9,right,1,1.479568399983691,sahil_r,001,2020_Dec_09_1525,hue_diff,2020.2.10,59.993580686875895,
images/pbg_ru_8.png,images/pbg_ru_0.png,166.0,left,0,7,7,8,left,1,1.4785303999960888,sahil_r,001,2020_Dec_09_1525,hue_diff,2020.2.10,59.993580686875895,
images/pbg_ru_2.png,images/pbg_ru_0.png,154.0,right,0,8,8,2,a,0,1.5284925999876577,sahil_r,001,2020_Dec_09_1525,hue_diff,2020.2.10,59.993580686875895,
images/pbg_ru_5.png,images/pbg_ru_0.png,160.0,left,0,9,9,5,left,1,1.410158999991836,sahil_r,001,2020_Dec_09_1525,hue_diff,2020.2.10,59.993580686875895,
images/pbg_ru_10.png,images/pbg_ru_0.png,170.0,right,0,10,10,10,right,1,1.2081153999897651,sahil_r,001,2020_Dec_09_1525,hue_diff,2020.2.10,59.993580686875895,
images/pbg_ru_13.png,images/pbg_ru_0.png,176.0,down,0,11,11,13,down,1,1.4906128000002354,sahil_r,001,2020_Dec_09_1525,hue_diff,2020.2.10,59.993580686875895,
images/pbg_ru_14.png,images/pbg_ru_0.png,178.0,right,0,12,12,14,right,1,1.5171570999955293,sahil_r,001,2020_Dec_09_1525,hue_diff,2020.2.10,59.993580686875895,
images/pbg_ru_6.png,images/pbg_ru_0.png,162.0,right,0,13,13,6,right,1,1.4963337000226602,sahil_r,001,2020_Dec_09_1525,hue_diff,2020.2.10,59.993580686875895,
images/pbg_ru_11.png,images/pbg_ru_0.png,172.0,up,0,14,14,11,up,1,1.5317592000064906,sahil_r,001,2020_Dec_09_1525,hue_diff,2020.2.10,59.993580686875895,
images/pbg_ru_7.png,images/pbg_ru_0.png,164.0,up,1,0,15,7,up,1,1.4360005999915302,sahil_r,001,2020_Dec_09_1525,hue_diff,2020.2.10,59.993580686875895,
images/pbg_ru_2.png,images/pbg_ru_0.png,154.0,right,1,1,16,2,a,0,2.071565299993381,sahil_r,001,2020_Dec_09_1525,hue_diff,2020.2.10,59.993580686875895,
images/pbg_ru_8.png,images/pbg_ru_0.png,166.0,left,1,2,17,8,left,1,1.4063031999976374,sahil_r,001,2020_Dec_09_1525,hue_diff,2020.2.10,59.993580686875895,
images/pbg_ru_5.png,images/pbg_ru_0.png,160.0,left,1,3,18,5,left,1,1.468287900002906,sahil_r,001,2020_Dec_09_1525,hue_diff,2020.2.10,59.993580686875895,
images/pbg_ru_14.png,images/pbg_ru_0.png,178.0,right,1,4,19,14,right,1,1.4797552000090946,sahil_r,001,2020_Dec_09_1525,hue_diff,2020.2.10,59.993580686875895,
images/pbg_ru_12.png,images/pbg_ru_0.png,174.0,down,1,5,20,12,down,1,1.4714652000111528,sahil_r,001,2020_Dec_09_1525,hue_diff,2020.2.10,59.993580686875895,
images/pbg_ru_3.png,images/pbg_ru_0.png,156.0,down,1,6,21,3,a,0,1.8562833000032697,sahil_r,001,2020_Dec_09_1525,hue_diff,2020.2.10,59.993580686875895,
images/pbg_ru_6.png,images/pbg_ru_0.png,162.0,right,1,7,22,6,right,1,1.5653376000118442,sahil_r,001,2020_Dec_09_1525,hue_diff,2020.2.10,59.993580686875895,
images/pbg_ru_1.png,images/pbg_ru_0.png,152.0,down,1,8,23,1,a,0,2.5800287000020035,sahil_r,001,2020_Dec_09_1525,hue_diff,2020.2.10,59.993580686875895,
images/pbg_ru_11.png,images/pbg_ru_0.png,172.0,up,1,9,24,11,up,1,1.5651603000005707,sahil_r,001,2020_Dec_09_1525,hue_diff,2020.2.10,59.993580686875895,
images/pbg_ru_9.png,images/pbg_ru_0.png,168.0,right,1,10,25,9,right,1,1.5344620000105351,sahil_r,001,2020_Dec_09_1525,hue_diff,2020.2.10,59.993580686875895,
images/pbg_ru_0.png,images/pbg_ru_0.png,150.0,up,1,11,26,0,a,0,2.2887749999936204,sahil_r,001,2020_Dec_09_1525,hue_diff,2020.2.10,59.993580686875895,
images/pbg_ru_4.png,images/pbg_ru_0.png,158.0,left,1,12,27,4,left,1,1.5557730000000447,sahil_r,001,2020_Dec_09_1525,hue_diff,2020.2.10,59.993580686875895,
images/pbg_ru_10.png,images/pbg_ru_0.png,170.0,right,1,13,28,10,right,1,1.5250264000205789,sahil_r,001,2020_Dec_09_1525,hue_diff,2020.2.10,59.993580686875895,
images/pbg_ru_13.png,images/pbg_ru_0.png,176.0,down,1,14,29,13,down,1,1.3478681999840774,sahil_r,001,2020_Dec_09_1525,hue_diff,2020.2.10,59.993580686875895,
images/pbg_ru_9.png,images/pbg_ru_0.png,168.0,right,2,0,30,9,right,1,1.4657085000071675,sahil_r,001,2020_Dec_09_1525,hue_diff,2020.2.10,59.993580686875895,
images/pbg_ru_6.png,images/pbg_ru_0.png,162.0,right,2,1,31,6,right,1,1.5031700000108685,sahil_r,001,2020_Dec_09_1525,hue_diff,2020.2.10,59.993580686875895,
images/pbg_ru_1.png,images/pbg_ru_0.png,152.0,down,2,2,32,1,a,0,2.222798100003274,sahil_r,001,2020_Dec_09_1525,hue_diff,2020.2.10,59.993580686875895,
images/pbg_ru_4.png,images/pbg_ru_0.png,158.0,left,2,3,33,4,left,1,2.283940099994652,sahil_r,001,2020_Dec_09_1525,hue_diff,2020.2.10,59.993580686875895,
images/pbg_ru_8.png,images/pbg_ru_0.png,166.0,left,2,4,34,8,left,1,1.6834799999778625,sahil_r,001,2020_Dec_09_1525,hue_diff,2020.2.10,59.993580686875895,
images/pbg_ru_12.png,images/pbg_ru_0.png,174.0,down,2,5,35,12,down,1,2.123045100015588,sahil_r,001,2020_Dec_09_1525,hue_diff,2020.2.10,59.993580686875895,
images/pbg_ru_13.png,images/pbg_ru_0.png,176.0,down,2,6,36,13,down,1,1.7235316000005696,sahil_r,001,2020_Dec_09_1525,hue_diff,2020.2.10,59.993580686875895,
images/pbg_ru_11.png,images/pbg_ru_0.png,172.0,up,2,7,37,11,up,1,1.5561454000126105,sahil_r,001,2020_Dec_09_1525,hue_diff,2020.2.10,59.993580686875895,
images/pbg_ru_5.png,images/pbg_ru_0.png,160.0,left,2,8,38,5,left,1,1.5602862999949139,sahil_r,001,2020_Dec_09_1525,hue_diff,2020.2.10,59.993580686875895,
images/pbg_ru_14.png,images/pbg_ru_0.png,178.0,right,2,9,39,14,right,1,1.4391216000076383,sahil_r,001,2020_Dec_09_1525,hue_diff,2020.2.10,59.993580686875895,
images/pbg_ru_7.png,images/pbg_ru_0.png,164.0,up,2,10,40,7,up,1,1.9697094000002835,sahil_r,001,2020_Dec_09_1525,hue_diff,2020.2.10,59.993580686875895,
images/pbg_ru_0.png,images/pbg_ru_0.png,150.0,up,2,11,41,0,a,0,1.9105208000109997,sahil_r,001,2020_Dec_09_1525,hue_diff,2020.2.10,59.993580686875895,
images/pbg_ru_2.png,images/pbg_ru_0.png,154.0,right,2,12,42,2,a,0,1.6312848000088707,sahil_r,001,2020_Dec_09_1525,hue_diff,2020.2.10,59.993580686875895,
images/pbg_ru_3.png,images/pbg_ru_0.png,156.0,down,2,13,43,3,a,0,1.847914399986621,sahil_r,001,2020_Dec_09_1525,hue_diff,2020.2.10,59.993580686875895,
images/pbg_ru_10.png,images/pbg_ru_0.png,170.0,right,2,14,44,10,right,1,1.591884099994786,sahil_r,001,2020_Dec_09_1525,hue_diff,2020.2.10,59.993580686875895,
images/pbg_ru_12.png,images/pbg_ru_0.png,174.0,down,3,0,45,12,down,1,1.5069632999948226,sahil_r,001,2020_Dec_09_1525,hue_diff,2020.2.10,59.993580686875895,
images/pbg_ru_14.png,images/pbg_ru_0.png,178.0,right,3,1,46,14,right,1,1.8138017000164837,sahil_r,001,2020_Dec_09_1525,hue_diff,2020.2.10,59.993580686875895,
images/pbg_ru_11.png,images/pbg_ru_0.png,172.0,up,3,2,47,11,a,0,1.8828033999889158,sahil_r,001,2020_Dec_09_1525,hue_diff,2020.2.10,59.993580686875895,
images/pbg_ru_10.png,images/pbg_ru_0.png,170.0,right,3,3,48,10,right,1,2.4693897999823093,sahil_r,001,2020_Dec_09_1525,hue_diff,2020.2.10,59.993580686875895,
images/pbg_ru_8.png,images/pbg_ru_0.png,166.0,left,3,4,49,8,left,1,2.0565023999952246,sahil_r,001,2020_Dec_09_1525,hue_diff,2020.2.10,59.993580686875895,
images/pbg_ru_6.png,images/pbg_ru_0.png,162.0,right,3,5,50,6,right,1,1.538648199988529,sahil_r,001,2020_Dec_09_1525,hue_diff,2020.2.10,59.993580686875895,
images/pbg_ru_1.png,images/pbg_ru_0.png,152.0,down,3,6,51,1,right,0,1.9671195999835618,sahil_r,001,2020_Dec_09_1525,hue_diff,2020.2.10,59.993580686875895,
images/pbg_ru_13.png,images/pbg_ru_0.png,176.0,down,3,7,52,13,down,1,1.4916085999866482,sahil_r,001,2020_Dec_09_1525,hue_diff,2020.2.10,59.993580686875895,
images/pbg_ru_9.png,images/pbg_ru_0.png,168.0,right,3,8,53,9,right,1,1.4621738999849185,sahil_r,001,2020_Dec_09_1525,hue_diff,2020.2.10,59.993580686875895,
images/pbg_ru_5.png,images/pbg_ru_0.png,160.0,left,3,9,54,5,a,0,2.0281110999931116,sahil_r,001,2020_Dec_09_1525,hue_diff,2020.2.10,59.993580686875895,
images/pbg_ru_7.png,images/pbg_ru_0.png,164.0,up,3,10,55,7,up,1,1.47781290000421,sahil_r,001,2020_Dec_09_1525,hue_diff,2020.2.10,59.993580686875895,
images/pbg_ru_2.png,images/pbg_ru_0.png,154.0,right,3,11,56,2,a,0,1.7715409999946132,sahil_r,001,2020_Dec_09_1525,hue_diff,2020.2.10,59.993580686875895,
images/pbg_ru_4.png,images/pbg_ru_0.png,158.0,left,3,12,57,4,left,1,1.455964100023266,sahil_r,001,2020_Dec_09_1525,hue_diff,2020.2.10,59.993580686875895,
images/pbg_ru_0.png,images/pbg_ru_0.png,150.0,up,3,13,58,0,a,0,2.4979595000040717,sahil_r,001,2020_Dec_09_1525,hue_diff,2020.2.10,59.993580686875895,
images/pbg_ru_3.png,images/pbg_ru_0.png,156.0,down,3,14,59,3,a,0,1.6819943999871612,sahil_r,001,2020_Dec_09_1525,hue_diff,2020.2.10,59.993580686875895,
images/pbg_ru_11.png,images/pbg_ru_0.png,172.0,up,4,0,60,11,up,1,1.339104300015606,sahil_r,001,2020_Dec_09_1525,hue_diff,2020.2.10,59.993580686875895,
images/pbg_ru_9.png,images/pbg_ru_0.png,168.0,right,4,1,61,9,right,1,1.8199865999922622,sahil_r,001,2020_Dec_09_1525,hue_diff,2020.2.10,59.993580686875895,
images/pbg_ru_7.png,images/pbg_ru_0.png,164.0,up,4,2,62,7,up,1,1.531746699998621,sahil_r,001,2020_Dec_09_1525,hue_diff,2020.2.10,59.993580686875895,
images/pbg_ru_1.png,images/pbg_ru_0.png,152.0,down,4,3,63,1,a,0,2.1379881000029854,sahil_r,001,2020_Dec_09_1525,hue_diff,2020.2.10,59.993580686875895,
images/pbg_ru_10.png,images/pbg_ru_0.png,170.0,right,4,4,64,10,right,1,1.4816888000059407,sahil_r,001,2020_Dec_09_1525,hue_diff,2020.2.10,59.993580686875895,
images/pbg_ru_0.png,images/pbg_ru_0.png,150.0,up,4,5,65,0,a,0,1.4997647000127472,sahil_r,001,2020_Dec_09_1525,hue_diff,2020.2.10,59.993580686875895,
images/pbg_ru_6.png,images/pbg_ru_0.png,162.0,right,4,6,66,6,right,1,1.434366500005126,sahil_r,001,2020_Dec_09_1525,hue_diff,2020.2.10,59.993580686875895,
images/pbg_ru_8.png,images/pbg_ru_0.png,166.0,left,4,7,67,8,a,0,1.713728299975628,sahil_r,001,2020_Dec_09_1525,hue_diff,2020.2.10,59.993580686875895,
images/pbg_ru_5.png,images/pbg_ru_0.png,160.0,left,4,8,68,5,a,0,2.1049588000169024,sahil_r,001,2020_Dec_09_1525,hue_diff,2020.2.10,59.993580686875895,
images/pbg_ru_13.png,images/pbg_ru_0.png,176.0,down,4,9,69,13,down,1,1.4431691999780014,sahil_r,001,2020_Dec_09_1525,hue_diff,2020.2.10,59.993580686875895,
images/pbg_ru_2.png,images/pbg_ru_0.png,154.0,right,4,10,70,2,a,0,1.4895950000209268,sahil_r,001,2020_Dec_09_1525,hue_diff,2020.2.10,59.993580686875895,
images/pbg_ru_3.png,images/pbg_ru_0.png,156.0,down,4,11,71,3,down,1,1.523120600002585,sahil_r,001,2020_Dec_09_1525,hue_diff,2020.2.10,59.993580686875895,
images/pbg_ru_12.png,images/pbg_ru_0.png,174.0,down,4,12,72,12,down,1,1.5492368999985047,sahil_r,001,2020_Dec_09_1525,hue_diff,2020.2.10,59.993580686875895,
images/pbg_ru_4.png,images/pbg_ru_0.png,158.0,left,4,13,73,4,left,1,1.5292505999968853,sahil_r,001,2020_Dec_09_1525,hue_diff,2020.2.10,59.993580686875895,
images/pbg_ru_14.png,images/pbg_ru_0.png,178.0,right,4,14,74,14,right,1,1.4478851000021677,sahil_r,001,2020_Dec_09_1525,hue_diff,2020.2.10,59.993580686875895,
images/pbg_ru_9.png,images/pbg_ru_0.png,168.0,right,5,0,75,9,right,1,1.4894500999944285,sahil_r,001,2020_Dec_09_1525,hue_diff,2020.2.10,59.993580686875895,
images/pbg_ru_11.png,images/pbg_ru_0.png,172.0,up,5,1,76,11,up,1,1.494551900017541,sahil_r,001,2020_Dec_09_1525,hue_diff,2020.2.10,59.993580686875895,
images/pbg_ru_2.png,images/pbg_ru_0.png,154.0,right,5,2,77,2,down,0,1.9467403000162449,sahil_r,001,2020_Dec_09_1525,hue_diff,2020.2.10,59.993580686875895,
images/pbg_ru_7.png,images/pbg_ru_0.png,164.0,up,5,3,78,7,up,1,1.5984318999981042,sahil_r,001,2020_Dec_09_1525,hue_diff,2020.2.10,59.993580686875895,
images/pbg_ru_13.png,images/pbg_ru_0.png,176.0,down,5,4,79,13,down,1,1.4986177000100724,sahil_r,001,2020_Dec_09_1525,hue_diff,2020.2.10,59.993580686875895,
images/pbg_ru_6.png,images/pbg_ru_0.png,162.0,right,5,5,80,6,down,0,1.8362411999842152,sahil_r,001,2020_Dec_09_1525,hue_diff,2020.2.10,59.993580686875895,
images/pbg_ru_14.png,images/pbg_ru_0.png,178.0,right,5,6,81,14,right,1,1.4587571999873035,sahil_r,001,2020_Dec_09_1525,hue_diff,2020.2.10,59.993580686875895,
images/pbg_ru_1.png,images/pbg_ru_0.png,152.0,down,5,7,82,1,up,0,2.5945672999951057,sahil_r,001,2020_Dec_09_1525,hue_diff,2020.2.10,59.993580686875895,
images/pbg_ru_4.png,images/pbg_ru_0.png,158.0,left,5,8,83,4,up,0,2.186654200020712,sahil_r,001,2020_Dec_09_1525,hue_diff,2020.2.10,59.993580686875895,
images/pbg_ru_0.png,images/pbg_ru_0.png,150.0,up,5,9,84,0,a,0,1.7585455999942496,sahil_r,001,2020_Dec_09_1525,hue_diff,2020.2.10,59.993580686875895,
images/pbg_ru_10.png,images/pbg_ru_0.png,170.0,right,5,10,85,10,right,1,1.5303141999756917,sahil_r,001,2020_Dec_09_1525,hue_diff,2020.2.10,59.993580686875895,
images/pbg_ru_3.png,images/pbg_ru_0.png,156.0,down,5,11,86,3,right,0,2.0899426999967545,sahil_r,001,2020_Dec_09_1525,hue_diff,2020.2.10,59.993580686875895,
images/pbg_ru_8.png,images/pbg_ru_0.png,166.0,left,5,12,87,8,left,1,1.4856137000024319,sahil_r,001,2020_Dec_09_1525,hue_diff,2020.2.10,59.993580686875895,
images/pbg_ru_12.png,images/pbg_ru_0.png,174.0,down,5,13,88,12,down,1,1.5056255999952555,sahil_r,001,2020_Dec_09_1525,hue_diff,2020.2.10,59.993580686875895,
images/pbg_ru_5.png,images/pbg_ru_0.png,160.0,left,5,14,89,5,down,0,2.2385733000119217,sahil_r,001,2020_Dec_09_1525,hue_diff,2020.2.10,59.993580686875895,
images/pbg_ru_4.png,images/pbg_ru_0.png,158.0,left,6,0,90,4,left,1,2.0266007000172976,sahil_r,001,2020_Dec_09_1525,hue_diff,2020.2.10,59.993580686875895,
images/pbg_ru_11.png,images/pbg_ru_0.png,172.0,up,6,1,91,11,up,1,1.429156600002898,sahil_r,001,2020_Dec_09_1525,hue_diff,2020.2.10,59.993580686875895,
images/pbg_ru_9.png,images/pbg_ru_0.png,168.0,right,6,2,92,9,right,1,1.499158399994485,sahil_r,001,2020_Dec_09_1525,hue_diff,2020.2.10,59.993580686875895,
images/pbg_ru_7.png,images/pbg_ru_0.png,164.0,up,6,3,93,7,up,1,1.5472121000057086,sahil_r,001,2020_Dec_09_1525,hue_diff,2020.2.10,59.993580686875895,
images/pbg_ru_6.png,images/pbg_ru_0.png,162.0,right,6,4,94,6,right,1,1.4894901999796275,sahil_r,001,2020_Dec_09_1525,hue_diff,2020.2.10,59.993580686875895,
images/pbg_ru_8.png,images/pbg_ru_0.png,166.0,left,6,5,95,8,left,1,1.5007959000067785,sahil_r,001,2020_Dec_09_1525,hue_diff,2020.2.10,59.993580686875895,
images/pbg_ru_1.png,images/pbg_ru_0.png,152.0,down,6,6,96,1,up,0,1.8016952000034507,sahil_r,001,2020_Dec_09_1525,hue_diff,2020.2.10,59.993580686875895,
images/pbg_ru_10.png,images/pbg_ru_0.png,170.0,right,6,7,97,10,right,1,1.47630839998601,sahil_r,001,2020_Dec_09_1525,hue_diff,2020.2.10,59.993580686875895,
images/pbg_ru_12.png,images/pbg_ru_0.png,174.0,down,6,8,98,12,down,1,1.4491147999942768,sahil_r,001,2020_Dec_09_1525,hue_diff,2020.2.10,59.993580686875895,
images/pbg_ru_3.png,images/pbg_ru_0.png,156.0,down,6,9,99,3,down,1,1.5741671999858227,sahil_r,001,2020_Dec_09_1525,hue_diff,2020.2.10,59.993580686875895,
images/pbg_ru_14.png,images/pbg_ru_0.png,178.0,right,6,10,100,14,right,1,1.654082599998219,sahil_r,001,2020_Dec_09_1525,hue_diff,2020.2.10,59.993580686875895,
images/pbg_ru_2.png,images/pbg_ru_0.png,154.0,right,6,11,101,2,right,1,2.1506721999903675,sahil_r,001,2020_Dec_09_1525,hue_diff,2020.2.10,59.993580686875895,
images/pbg_ru_0.png,images/pbg_ru_0.png,150.0,up,6,12,102,0,a,0,1.730791500012856,sahil_r,001,2020_Dec_09_1525,hue_diff,2020.2.10,59.993580686875895,
images/pbg_ru_5.png,images/pbg_ru_0.png,160.0,left,6,13,103,5,left,1,1.8679455000092275,sahil_r,001,2020_Dec_09_1525,hue_diff,2020.2.10,59.993580686875895,
images/pbg_ru_13.png,images/pbg_ru_0.png,176.0,down,6,14,104,13,down,1,1.4802359000022989,sahil_r,001,2020_Dec_09_1525,hue_diff,2020.2.10,59.993580686875895,
images/pbg_ru_2.png,images/pbg_ru_0.png,154.0,right,7,0,105,2,right,1,1.7709130000148434,sahil_r,001,2020_Dec_09_1525,hue_diff,2020.2.10,59.993580686875895,
images/pbg_ru_3.png,images/pbg_ru_0.png,156.0,down,7,1,106,3,right,0,3.42360139999073,sahil_r,001,2020_Dec_09_1525,hue_diff,2020.2.10,59.993580686875895,
images/pbg_ru_11.png,images/pbg_ru_0.png,172.0,up,7,2,107,11,up,1,1.4059416000091005,sahil_r,001,2020_Dec_09_1525,hue_diff,2020.2.10,59.993580686875895,
images/pbg_ru_8.png,images/pbg_ru_0.png,166.0,left,7,3,108,8,left,1,1.4704930000007153,sahil_r,001,2020_Dec_09_1525,hue_diff,2020.2.10,59.993580686875895,
images/pbg_ru_6.png,images/pbg_ru_0.png,162.0,right,7,4,109,6,right,1,1.4198369999940041,sahil_r,001,2020_Dec_09_1525,hue_diff,2020.2.10,59.993580686875895,
images/pbg_ru_1.png,images/pbg_ru_0.png,152.0,down,7,5,110,1,a,0,2.613895600021351,sahil_r,001,2020_Dec_09_1525,hue_diff,2020.2.10,59.993580686875895,
images/pbg_ru_13.png,images/pbg_ru_0.png,176.0,down,7,6,111,13,down,1,1.5983536000130698,sahil_r,001,2020_Dec_09_1525,hue_diff,2020.2.10,59.993580686875895,
images/pbg_ru_14.png,images/pbg_ru_0.png,178.0,right,7,7,112,14,right,1,1.4166893000074197,sahil_r,001,2020_Dec_09_1525,hue_diff,2020.2.10,59.993580686875895,
images/pbg_ru_4.png,images/pbg_ru_0.png,158.0,left,7,8,113,4,a,0,2.180797800014261,sahil_r,001,2020_Dec_09_1525,hue_diff,2020.2.10,59.993580686875895,
images/pbg_ru_0.png,images/pbg_ru_0.png,150.0,up,7,9,114,0,a,0,1.643319499999052,sahil_r,001,2020_Dec_09_1525,hue_diff,2020.2.10,59.993580686875895,
images/pbg_ru_5.png,images/pbg_ru_0.png,160.0,left,7,10,115,5,left,1,1.5014861000236124,sahil_r,001,2020_Dec_09_1525,hue_diff,2020.2.10,59.993580686875895,
images/pbg_ru_7.png,images/pbg_ru_0.png,164.0,up,7,11,116,7,up,1,1.3783816000213847,sahil_r,001,2020_Dec_09_1525,hue_diff,2020.2.10,59.993580686875895,
images/pbg_ru_10.png,images/pbg_ru_0.png,170.0,right,7,12,117,10,right,1,1.4299327000044286,sahil_r,001,2020_Dec_09_1525,hue_diff,2020.2.10,59.993580686875895,
images/pbg_ru_12.png,images/pbg_ru_0.png,174.0,down,7,13,118,12,down,1,1.3230212999915238,sahil_r,001,2020_Dec_09_1525,hue_diff,2020.2.10,59.993580686875895,
images/pbg_ru_9.png,images/pbg_ru_0.png,168.0,right,7,14,119,9,right,1,1.8293230000126641,sahil_r,001,2020_Dec_09_1525,hue_diff,2020.2.10,59.993580686875895,
images/pbg_ru_11.png,images/pbg_ru_0.png,172.0,up,8,0,120,11,up,1,1.4619235999998637,sahil_r,001,2020_Dec_09_1525,hue_diff,2020.2.10,59.993580686875895,
images/pbg_ru_8.png,images/pbg_ru_0.png,166.0,left,8,1,121,8,a,0,2.1351494999835268,sahil_r,001,2020_Dec_09_1525,hue_diff,2020.2.10,59.993580686875895,
images/pbg_ru_3.png,images/pbg_ru_0.png,156.0,down,8,2,122,3,down,1,1.6215580999851227,sahil_r,001,2020_Dec_09_1525,hue_diff,2020.2.10,59.993580686875895,
images/pbg_ru_2.png,images/pbg_ru_0.png,154.0,right,8,3,123,2,a,0,1.4534361000114586,sahil_r,001,2020_Dec_09_1525,hue_diff,2020.2.10,59.993580686875895,
images/pbg_ru_7.png,images/pbg_ru_0.png,164.0,up,8,4,124,7,up,1,1.3790371000068262,sahil_r,001,2020_Dec_09_1525,hue_diff,2020.2.10,59.993580686875895,
images/pbg_ru_14.png,images/pbg_ru_0.png,178.0,right,8,5,125,14,right,1,1.4241839000023901,sahil_r,001,2020_Dec_09_1525,hue_diff,2020.2.10,59.993580686875895,
images/pbg_ru_4.png,images/pbg_ru_0.png,158.0,left,8,6,126,4,left,1,1.679456999991089,sahil_r,001,2020_Dec_09_1525,hue_diff,2020.2.10,59.993580686875895,
images/pbg_ru_0.png,images/pbg_ru_0.png,150.0,up,8,7,127,0,a,0,1.6623122000019066,sahil_r,001,2020_Dec_09_1525,hue_diff,2020.2.10,59.993580686875895,
images/pbg_ru_9.png,images/pbg_ru_0.png,168.0,right,8,8,128,9,right,1,1.3209063000103924,sahil_r,001,2020_Dec_09_1525,hue_diff,2020.2.10,59.993580686875895,
images/pbg_ru_1.png,images/pbg_ru_0.png,152.0,down,8,9,129,1,a,0,1.9574745999998413,sahil_r,001,2020_Dec_09_1525,hue_diff,2020.2.10,59.993580686875895,
images/pbg_ru_12.png,images/pbg_ru_0.png,174.0,down,8,10,130,12,down,1,1.520547300024191,sahil_r,001,2020_Dec_09_1525,hue_diff,2020.2.10,59.993580686875895,
images/pbg_ru_5.png,images/pbg_ru_0.png,160.0,left,8,11,131,5,a,0,1.8180926000059117,sahil_r,001,2020_Dec_09_1525,hue_diff,2020.2.10,59.993580686875895,
images/pbg_ru_10.png,images/pbg_ru_0.png,170.0,right,8,12,132,10,right,1,1.409510199999204,sahil_r,001,2020_Dec_09_1525,hue_diff,2020.2.10,59.993580686875895,
images/pbg_ru_13.png,images/pbg_ru_0.png,176.0,down,8,13,133,13,down,1,1.3877291000098921,sahil_r,001,2020_Dec_09_1525,hue_diff,2020.2.10,59.993580686875895,
images/pbg_ru_6.png,images/pbg_ru_0.png,162.0,right,8,14,134,6,right,1,1.4518969999917317,sahil_r,001,2020_Dec_09_1525,hue_diff,2020.2.10,59.993580686875895,
images/pbg_ru_2.png,images/pbg_ru_0.png,154.0,right,9,0,135,2,a,0,1.4622695999860298,sahil_r,001,2020_Dec_09_1525,hue_diff,2020.2.10,59.993580686875895,
images/pbg_ru_5.png,images/pbg_ru_0.png,160.0,left,9,1,136,5,left,1,1.416456200007815,sahil_r,001,2020_Dec_09_1525,hue_diff,2020.2.10,59.993580686875895,
images/pbg_ru_14.png,images/pbg_ru_0.png,178.0,right,9,2,137,14,right,1,1.417990899994038,sahil_r,001,2020_Dec_09_1525,hue_diff,2020.2.10,59.993580686875895,
images/pbg_ru_7.png,images/pbg_ru_0.png,164.0,up,9,3,138,7,up,1,1.4309242999879643,sahil_r,001,2020_Dec_09_1525,hue_diff,2020.2.10,59.993580686875895,
images/pbg_ru_10.png,images/pbg_ru_0.png,170.0,right,9,4,139,10,right,1,1.4303011000156403,sahil_r,001,2020_Dec_09_1525,hue_diff,2020.2.10,59.993580686875895,
images/pbg_ru_12.png,images/pbg_ru_0.png,174.0,down,9,5,140,12,down,1,1.465564300015103,sahil_r,001,2020_Dec_09_1525,hue_diff,2020.2.10,59.993580686875895,
images/pbg_ru_11.png,images/pbg_ru_0.png,172.0,up,9,6,141,11,up,1,1.266010199993616,sahil_r,001,2020_Dec_09_1525,hue_diff,2020.2.10,59.993580686875895,
images/pbg_ru_8.png,images/pbg_ru_0.png,166.0,left,9,7,142,8,left,1,1.5037659999798052,sahil_r,001,2020_Dec_09_1525,hue_diff,2020.2.10,59.993580686875895,
images/pbg_ru_13.png,images/pbg_ru_0.png,176.0,down,9,8,143,13,down,1,1.3861621999822091,sahil_r,001,2020_Dec_09_1525,hue_diff,2020.2.10,59.993580686875895,
images/pbg_ru_3.png,images/pbg_ru_0.png,156.0,down,9,9,144,3,down,1,1.515634699986549,sahil_r,001,2020_Dec_09_1525,hue_diff,2020.2.10,59.993580686875895,
images/pbg_ru_4.png,images/pbg_ru_0.png,158.0,left,9,10,145,4,left,1,2.230932800011942,sahil_r,001,2020_Dec_09_1525,hue_diff,2020.2.10,59.993580686875895,
images/pbg_ru_1.png,images/pbg_ru_0.png,152.0,down,9,11,146,1,a,0,1.7651431999984197,sahil_r,001,2020_Dec_09_1525,hue_diff,2020.2.10,59.993580686875895,
images/pbg_ru_6.png,images/pbg_ru_0.png,162.0,right,9,12,147,6,right,1,1.584522699995432,sahil_r,001,2020_Dec_09_1525,hue_diff,2020.2.10,59.993580686875895,
images/pbg_ru_9.png,images/pbg_ru_0.png,168.0,right,9,13,148,9,right,1,1.519989299995359,sahil_r,001,2020_Dec_09_1525,hue_diff,2020.2.10,59.993580686875895,
images/pbg_ru_0.png,images/pbg_ru_0.png,150.0,up,9,14,149,0,a,0,1.8273472000146285,sahil_r,001,2020_Dec_09_1525,hue_diff,2020.2.10,59.993580686875895,
images/pbg_ru_0.png,images/pbg_ru_0.png,150.0,up,10,0,150,0,a,0,1.8367918000149075,sahil_r,001,2020_Dec_09_1525,hue_diff,2020.2.10,59.993580686875895,
images/pbg_ru_1.png,images/pbg_ru_0.png,152.0,down,10,1,151,1,a,0,1.9049473000050057,sahil_r,001,2020_Dec_09_1525,hue_diff,2020.2.10,59.993580686875895,
images/pbg_ru_12.png,images/pbg_ru_0.png,174.0,down,10,2,152,12,down,1,1.4739578000153415,sahil_r,001,2020_Dec_09_1525,hue_diff,2020.2.10,59.993580686875895,
images/pbg_ru_14.png,images/pbg_ru_0.png,178.0,right,10,3,153,14,right,1,1.5870035999978427,sahil_r,001,2020_Dec_09_1525,hue_diff,2020.2.10,59.993580686875895,
images/pbg_ru_11.png,images/pbg_ru_0.png,172.0,up,10,4,154,11,up,1,1.4765018000034615,sahil_r,001,2020_Dec_09_1525,hue_diff,2020.2.10,59.993580686875895,
images/pbg_ru_6.png,images/pbg_ru_0.png,162.0,right,10,5,155,6,a,0,2.546623100002762,sahil_r,001,2020_Dec_09_1525,hue_diff,2020.2.10,59.993580686875895,
images/pbg_ru_2.png,images/pbg_ru_0.png,154.0,right,10,6,156,2,a,0,1.823439600004349,sahil_r,001,2020_Dec_09_1525,hue_diff,2020.2.10,59.993580686875895,
images/pbg_ru_7.png,images/pbg_ru_0.png,164.0,up,10,7,157,7,up,1,1.2623159000067972,sahil_r,001,2020_Dec_09_1525,hue_diff,2020.2.10,59.993580686875895,
images/pbg_ru_3.png,images/pbg_ru_0.png,156.0,down,10,8,158,3,down,1,1.5506482000055257,sahil_r,001,2020_Dec_09_1525,hue_diff,2020.2.10,59.993580686875895,
images/pbg_ru_5.png,images/pbg_ru_0.png,160.0,left,10,9,159,5,a,0,1.5245231000008062,sahil_r,001,2020_Dec_09_1525,hue_diff,2020.2.10,59.993580686875895,
images/pbg_ru_8.png,images/pbg_ru_0.png,166.0,left,10,10,160,8,left,1,1.4118054000136908,sahil_r,001,2020_Dec_09_1525,hue_diff,2020.2.10,59.993580686875895,
images/pbg_ru_10.png,images/pbg_ru_0.png,170.0,right,10,11,161,10,right,1,1.3750589999835938,sahil_r,001,2020_Dec_09_1525,hue_diff,2020.2.10,59.993580686875895,
images/pbg_ru_13.png,images/pbg_ru_0.png,176.0,down,10,12,162,13,down,1,1.4623136000009254,sahil_r,001,2020_Dec_09_1525,hue_diff,2020.2.10,59.993580686875895,
images/pbg_ru_4.png,images/pbg_ru_0.png,158.0,left,10,13,163,4,left,1,1.5381180999975186,sahil_r,001,2020_Dec_09_1525,hue_diff,2020.2.10,59.993580686875895,
images/pbg_ru_9.png,images/pbg_ru_0.png,168.0,right,10,14,164,9,right,1,1.6244684999983292,sahil_r,001,2020_Dec_09_1525,hue_diff,2020.2.10,59.993580686875895,
images/pbg_ru_12.png,images/pbg_ru_0.png,174.0,down,11,0,165,12,down,1,1.5245785000151955,sahil_r,001,2020_Dec_09_1525,hue_diff,2020.2.10,59.993580686875895,
images/pbg_ru_3.png,images/pbg_ru_0.png,156.0,down,11,1,166,3,a,0,2.2487618000013754,sahil_r,001,2020_Dec_09_1525,hue_diff,2020.2.10,59.993580686875895,
images/pbg_ru_10.png,images/pbg_ru_0.png,170.0,right,11,2,167,10,right,1,1.535060700000031,sahil_r,001,2020_Dec_09_1525,hue_diff,2020.2.10,59.993580686875895,
images/pbg_ru_6.png,images/pbg_ru_0.png,162.0,right,11,3,168,6,right,1,1.7851236999849789,sahil_r,001,2020_Dec_09_1525,hue_diff,2020.2.10,59.993580686875895,
images/pbg_ru_5.png,images/pbg_ru_0.png,160.0,left,11,4,169,5,left,1,1.7353307000012137,sahil_r,001,2020_Dec_09_1525,hue_diff,2020.2.10,59.993580686875895,
images/pbg_ru_7.png,images/pbg_ru_0.png,164.0,up,11,5,170,7,up,1,1.477043400023831,sahil_r,001,2020_Dec_09_1525,hue_diff,2020.2.10,59.993580686875895,
images/pbg_ru_13.png,images/pbg_ru_0.png,176.0,down,11,6,171,13,down,1,1.4927862999902572,sahil_r,001,2020_Dec_09_1525,hue_diff,2020.2.10,59.993580686875895,
images/pbg_ru_1.png,images/pbg_ru_0.png,152.0,down,11,7,172,1,a,0,1.8148962999985088,sahil_r,001,2020_Dec_09_1525,hue_diff,2020.2.10,59.993580686875895,
images/pbg_ru_11.png,images/pbg_ru_0.png,172.0,up,11,8,173,11,up,1,1.4992746000061743,sahil_r,001,2020_Dec_09_1525,hue_diff,2020.2.10,59.993580686875895,
images/pbg_ru_2.png,images/pbg_ru_0.png,154.0,right,11,9,174,2,a,0,1.5574157000228297,sahil_r,001,2020_Dec_09_1525,hue_diff,2020.2.10,59.993580686875895,
images/pbg_ru_14.png,images/pbg_ru_0.png,178.0,right,11,10,175,14,right,1,1.392462899995735,sahil_r,001,2020_Dec_09_1525,hue_diff,2020.2.10,59.993580686875895,
images/pbg_ru_8.png,images/pbg_ru_0.png,166.0,left,11,11,176,8,left,1,1.4658381000044756,sahil_r,001,2020_Dec_09_1525,hue_diff,2020.2.10,59.993580686875895,
images/pbg_ru_9.png,images/pbg_ru_0.png,168.0,right,11,12,177,9,right,1,1.3900146000087261,sahil_r,001,2020_Dec_09_1525,hue_diff,2020.2.10,59.993580686875895,
images/pbg_ru_4.png,images/pbg_ru_0.png,158.0,left,11,13,178,4,left,1,1.3772313999943435,sahil_r,001,2020_Dec_09_1525,hue_diff,2020.2.10,59.993580686875895,
images/pbg_ru_0.png,images/pbg_ru_0.png,150.0,up,11,14,179,0,a,0,1.4957432000082918,sahil_r,001,2020_Dec_09_1525,hue_diff,2020.2.10,59.993580686875895,
images/pbg_ru_0.png,images/pbg_ru_0.png,150.0,up,12,0,180,0,a,0,1.4443296000245027,sahil_r,001,2020_Dec_09_1525,hue_diff,2020.2.10,59.993580686875895,
images/pbg_ru_1.png,images/pbg_ru_0.png,152.0,down,12,1,181,1,a,0,1.546577899978729,sahil_r,001,2020_Dec_09_1525,hue_diff,2020.2.10,59.993580686875895,
images/pbg_ru_14.png,images/pbg_ru_0.png,178.0,right,12,2,182,14,right,1,1.4597869999997783,sahil_r,001,2020_Dec_09_1525,hue_diff,2020.2.10,59.993580686875895,
images/pbg_ru_3.png,images/pbg_ru_0.png,156.0,down,12,3,183,3,a,0,1.5091544000024442,sahil_r,001,2020_Dec_09_1525,hue_diff,2020.2.10,59.993580686875895,
images/pbg_ru_6.png,images/pbg_ru_0.png,162.0,right,12,4,184,6,right,1,1.4534387000021525,sahil_r,001,2020_Dec_09_1525,hue_diff,2020.2.10,59.993580686875895,
images/pbg_ru_10.png,images/pbg_ru_0.png,170.0,right,12,5,185,10,right,1,1.423967700015055,sahil_r,001,2020_Dec_09_1525,hue_diff,2020.2.10,59.993580686875895,
images/pbg_ru_4.png,images/pbg_ru_0.png,158.0,left,12,6,186,4,left,1,1.4549427000165451,sahil_r,001,2020_Dec_09_1525,hue_diff,2020.2.10,59.993580686875895,
images/pbg_ru_11.png,images/pbg_ru_0.png,172.0,up,12,7,187,11,up,1,1.4599544999946374,sahil_r,001,2020_Dec_09_1525,hue_diff,2020.2.10,59.993580686875895,
images/pbg_ru_5.png,images/pbg_ru_0.png,160.0,left,12,8,188,5,left,1,1.3255500000086613,sahil_r,001,2020_Dec_09_1525,hue_diff,2020.2.10,59.993580686875895,
images/pbg_ru_13.png,images/pbg_ru_0.png,176.0,down,12,9,189,13,down,1,1.298581400013063,sahil_r,001,2020_Dec_09_1525,hue_diff,2020.2.10,59.993580686875895,
images/pbg_ru_7.png,images/pbg_ru_0.png,164.0,up,12,10,190,7,up,1,1.5216210999933537,sahil_r,001,2020_Dec_09_1525,hue_diff,2020.2.10,59.993580686875895,
images/pbg_ru_8.png,images/pbg_ru_0.png,166.0,left,12,11,191,8,left,1,1.343214699998498,sahil_r,001,2020_Dec_09_1525,hue_diff,2020.2.10,59.993580686875895,
images/pbg_ru_2.png,images/pbg_ru_0.png,154.0,right,12,12,192,2,a,0,1.5066127000027336,sahil_r,001,2020_Dec_09_1525,hue_diff,2020.2.10,59.993580686875895,
images/pbg_ru_12.png,images/pbg_ru_0.png,174.0,down,12,13,193,12,down,1,1.4237109000096098,sahil_r,001,2020_Dec_09_1525,hue_diff,2020.2.10,59.993580686875895,
images/pbg_ru_9.png,images/pbg_ru_0.png,168.0,right,12,14,194,9,right,1,1.4168871000001673,sahil_r,001,2020_Dec_09_1525,hue_diff,2020.2.10,59.993580686875895,
images/pbg_ru_1.png,images/pbg_ru_0.png,152.0,down,13,0,195,1,a,0,1.7980337000044528,sahil_r,001,2020_Dec_09_1525,hue_diff,2020.2.10,59.993580686875895,
images/pbg_ru_2.png,images/pbg_ru_0.png,154.0,right,13,1,196,2,a,0,1.6915124999941327,sahil_r,001,2020_Dec_09_1525,hue_diff,2020.2.10,59.993580686875895,
images/pbg_ru_13.png,images/pbg_ru_0.png,176.0,down,13,2,197,13,down,1,1.2786330999806523,sahil_r,001,2020_Dec_09_1525,hue_diff,2020.2.10,59.993580686875895,
images/pbg_ru_3.png,images/pbg_ru_0.png,156.0,down,13,3,198,3,a,0,1.6312606999999844,sahil_r,001,2020_Dec_09_1525,hue_diff,2020.2.10,59.993580686875895,
images/pbg_ru_6.png,images/pbg_ru_0.png,162.0,right,13,4,199,6,right,1,1.5415574999933597,sahil_r,001,2020_Dec_09_1525,hue_diff,2020.2.10,59.993580686875895,
images/pbg_ru_0.png,images/pbg_ru_0.png,150.0,up,13,5,200,0,a,0,1.4912140000087675,sahil_r,001,2020_Dec_09_1525,hue_diff,2020.2.10,59.993580686875895,
images/pbg_ru_7.png,images/pbg_ru_0.png,164.0,up,13,6,201,7,up,1,1.7097154000075534,sahil_r,001,2020_Dec_09_1525,hue_diff,2020.2.10,59.993580686875895,
images/pbg_ru_9.png,images/pbg_ru_0.png,168.0,right,13,7,202,9,right,1,1.3622695000085514,sahil_r,001,2020_Dec_09_1525,hue_diff,2020.2.10,59.993580686875895,
images/pbg_ru_12.png,images/pbg_ru_0.png,174.0,down,13,8,203,12,down,1,1.4121876999852248,sahil_r,001,2020_Dec_09_1525,hue_diff,2020.2.10,59.993580686875895,
images/pbg_ru_5.png,images/pbg_ru_0.png,160.0,left,13,9,204,5,left,1,1.343025400012266,sahil_r,001,2020_Dec_09_1525,hue_diff,2020.2.10,59.993580686875895,
images/pbg_ru_8.png,images/pbg_ru_0.png,166.0,left,13,10,205,8,left,1,1.4769202999887057,sahil_r,001,2020_Dec_09_1525,hue_diff,2020.2.10,59.993580686875895,
images/pbg_ru_10.png,images/pbg_ru_0.png,170.0,right,13,11,206,10,right,1,1.4160104999900796,sahil_r,001,2020_Dec_09_1525,hue_diff,2020.2.10,59.993580686875895,
images/pbg_ru_11.png,images/pbg_ru_0.png,172.0,up,13,12,207,11,up,1,1.4483662999991793,sahil_r,001,2020_Dec_09_1525,hue_diff,2020.2.10,59.993580686875895,
images/pbg_ru_4.png,images/pbg_ru_0.png,158.0,left,13,13,208,4,left,1,1.4756388000096194,sahil_r,001,2020_Dec_09_1525,hue_diff,2020.2.10,59.993580686875895,
images/pbg_ru_14.png,images/pbg_ru_0.png,178.0,right,13,14,209,14,right,1,1.3651140999863856,sahil_r,001,2020_Dec_09_1525,hue_diff,2020.2.10,59.993580686875895,
images/pbg_ru_4.png,images/pbg_ru_0.png,158.0,left,14,0,210,4,left,1,1.3430786000099033,sahil_r,001,2020_Dec_09_1525,hue_diff,2020.2.10,59.993580686875895,
images/pbg_ru_0.png,images/pbg_ru_0.png,150.0,up,14,1,211,0,a,0,1.4031909999903291,sahil_r,001,2020_Dec_09_1525,hue_diff,2020.2.10,59.993580686875895,
images/pbg_ru_10.png,images/pbg_ru_0.png,170.0,right,14,2,212,10,right,1,1.4003916000074241,sahil_r,001,2020_Dec_09_1525,hue_diff,2020.2.10,59.993580686875895,
images/pbg_ru_14.png,images/pbg_ru_0.png,178.0,right,14,3,213,14,right,1,1.4674114000226837,sahil_r,001,2020_Dec_09_1525,hue_diff,2020.2.10,59.993580686875895,
images/pbg_ru_7.png,images/pbg_ru_0.png,164.0,up,14,4,214,7,up,1,1.5076550999947358,sahil_r,001,2020_Dec_09_1525,hue_diff,2020.2.10,59.993580686875895,
images/pbg_ru_12.png,images/pbg_ru_0.png,174.0,down,14,5,215,12,down,1,1.4641201999911573,sahil_r,001,2020_Dec_09_1525,hue_diff,2020.2.10,59.993580686875895,
images/pbg_ru_1.png,images/pbg_ru_0.png,152.0,down,14,6,216,1,a,0,1.5876619000046048,sahil_r,001,2020_Dec_09_1525,hue_diff,2020.2.10,59.993580686875895,
images/pbg_ru_6.png,images/pbg_ru_0.png,162.0,right,14,7,217,6,right,1,1.2590690000215545,sahil_r,001,2020_Dec_09_1525,hue_diff,2020.2.10,59.993580686875895,
images/pbg_ru_9.png,images/pbg_ru_0.png,168.0,right,14,8,218,9,right,1,1.4369355000089854,sahil_r,001,2020_Dec_09_1525,hue_diff,2020.2.10,59.993580686875895,
images/pbg_ru_13.png,images/pbg_ru_0.png,176.0,down,14,9,219,13,down,1,1.367119400005322,sahil_r,001,2020_Dec_09_1525,hue_diff,2020.2.10,59.993580686875895,
images/pbg_ru_11.png,images/pbg_ru_0.png,172.0,up,14,10,220,11,up,1,1.3526080999872647,sahil_r,001,2020_Dec_09_1525,hue_diff,2020.2.10,59.993580686875895,
images/pbg_ru_8.png,images/pbg_ru_0.png,166.0,left,14,11,221,8,left,1,1.4754762999946252,sahil_r,001,2020_Dec_09_1525,hue_diff,2020.2.10,59.993580686875895,
images/pbg_ru_2.png,images/pbg_ru_0.png,154.0,right,14,12,222,2,a,0,1.7259930000000168,sahil_r,001,2020_Dec_09_1525,hue_diff,2020.2.10,59.993580686875895,
images/pbg_ru_3.png,images/pbg_ru_0.png,156.0,down,14,13,223,3,down,1,1.5489652999967802,sahil_r,001,2020_Dec_09_1525,hue_diff,2020.2.10,59.993580686875895,
images/pbg_ru_5.png,images/pbg_ru_0.png,160.0,left,14,14,224,5,left,1,1.649918399984017,sahil_r,001,2020_Dec_09_1525,hue_diff,2020.2.10,59.993580686875895,
images/pbg_ru_5.png,images/pbg_ru_0.png,160.0,left,15,0,225,5,left,1,1.5352569000096992,sahil_r,001,2020_Dec_09_1525,hue_diff,2020.2.10,59.993580686875895,
images/pbg_ru_3.png,images/pbg_ru_0.png,156.0,down,15,1,226,3,a,0,2.222478099982254,sahil_r,001,2020_Dec_09_1525,hue_diff,2020.2.10,59.993580686875895,
images/pbg_ru_12.png,images/pbg_ru_0.png,174.0,down,15,2,227,12,down,1,1.4503455999947619,sahil_r,001,2020_Dec_09_1525,hue_diff,2020.2.10,59.993580686875895,
images/pbg_ru_14.png,images/pbg_ru_0.png,178.0,right,15,3,228,14,right,1,1.500703199999407,sahil_r,001,2020_Dec_09_1525,hue_diff,2020.2.10,59.993580686875895,
images/pbg_ru_2.png,images/pbg_ru_0.png,154.0,right,15,4,229,2,a,0,1.660983200010378,sahil_r,001,2020_Dec_09_1525,hue_diff,2020.2.10,59.993580686875895,
images/pbg_ru_9.png,images/pbg_ru_0.png,168.0,right,15,5,230,9,right,1,1.594006500003161,sahil_r,001,2020_Dec_09_1525,hue_diff,2020.2.10,59.993580686875895,
images/pbg_ru_6.png,images/pbg_ru_0.png,162.0,right,15,6,231,6,right,1,2.5362138000200503,sahil_r,001,2020_Dec_09_1525,hue_diff,2020.2.10,59.993580686875895,
images/pbg_ru_4.png,images/pbg_ru_0.png,158.0,left,15,7,232,4,a,0,1.7113828999863472,sahil_r,001,2020_Dec_09_1525,hue_diff,2020.2.10,59.993580686875895,
images/pbg_ru_1.png,images/pbg_ru_0.png,152.0,down,15,8,233,1,a,0,2.043025300023146,sahil_r,001,2020_Dec_09_1525,hue_diff,2020.2.10,59.993580686875895,
images/pbg_ru_11.png,images/pbg_ru_0.png,172.0,up,15,9,234,11,up,1,1.5224602000089362,sahil_r,001,2020_Dec_09_1525,hue_diff,2020.2.10,59.993580686875895,
images/pbg_ru_13.png,images/pbg_ru_0.png,176.0,down,15,10,235,13,down,1,1.6729612999770325,sahil_r,001,2020_Dec_09_1525,hue_diff,2020.2.10,59.993580686875895,
images/pbg_ru_0.png,images/pbg_ru_0.png,150.0,up,15,11,236,0,a,0,1.9863577000214718,sahil_r,001,2020_Dec_09_1525,hue_diff,2020.2.10,59.993580686875895,
images/pbg_ru_8.png,images/pbg_ru_0.png,166.0,left,15,12,237,8,a,0,2.067286100005731,sahil_r,001,2020_Dec_09_1525,hue_diff,2020.2.10,59.993580686875895,
images/pbg_ru_10.png,images/pbg_ru_0.png,170.0,right,15,13,238,10,right,1,1.681274200003827,sahil_r,001,2020_Dec_09_1525,hue_diff,2020.2.10,59.993580686875895,
images/pbg_ru_7.png,images/pbg_ru_0.png,164.0,up,15,14,239,7,up,1,1.4419046000111848,sahil_r,001,2020_Dec_09_1525,hue_diff,2020.2.10,59.993580686875895,
images/pbg_ru_2.png,images/pbg_ru_0.png,154.0,right,16,0,240,2,a,0,1.7722495999769308,sahil_r,001,2020_Dec_09_1525,hue_diff,2020.2.10,59.993580686875895,
images/pbg_ru_13.png,images/pbg_ru_0.png,176.0,down,16,1,241,13,down,1,1.4512291999999434,sahil_r,001,2020_Dec_09_1525,hue_diff,2020.2.10,59.993580686875895,
images/pbg_ru_10.png,images/pbg_ru_0.png,170.0,right,16,2,242,10,right,1,1.6032198000175413,sahil_r,001,2020_Dec_09_1525,hue_diff,2020.2.10,59.993580686875895,
images/pbg_ru_6.png,images/pbg_ru_0.png,162.0,right,16,3,243,6,a,0,1.714624799991725,sahil_r,001,2020_Dec_09_1525,hue_diff,2020.2.10,59.993580686875895,
images/pbg_ru_0.png,images/pbg_ru_0.png,150.0,up,16,4,244,0,a,0,1.7520319999894127,sahil_r,001,2020_Dec_09_1525,hue_diff,2020.2.10,59.993580686875895,
images/pbg_ru_1.png,images/pbg_ru_0.png,152.0,down,16,5,245,1,a,0,3.8638294999836944,sahil_r,001,2020_Dec_09_1525,hue_diff,2020.2.10,59.993580686875895,
images/pbg_ru_7.png,images/pbg_ru_0.png,164.0,up,16,6,246,7,a,0,1.6113161999965087,sahil_r,001,2020_Dec_09_1525,hue_diff,2020.2.10,59.993580686875895,
images/pbg_ru_4.png,images/pbg_ru_0.png,158.0,left,16,7,247,4,left,1,1.8213946999749169,sahil_r,001,2020_Dec_09_1525,hue_diff,2020.2.10,59.993580686875895,
images/pbg_ru_14.png,images/pbg_ru_0.png,178.0,right,16,8,248,14,right,1,1.842946499993559,sahil_r,001,2020_Dec_09_1525,hue_diff,2020.2.10,59.993580686875895,
images/pbg_ru_11.png,images/pbg_ru_0.png,172.0,up,16,9,249,11,a,0,2.2115768999792635,sahil_r,001,2020_Dec_09_1525,hue_diff,2020.2.10,59.993580686875895,
images/pbg_ru_3.png,images/pbg_ru_0.png,156.0,down,16,10,250,3,a,0,1.6742992000072263,sahil_r,001,2020_Dec_09_1525,hue_diff,2020.2.10,59.993580686875895,
images/pbg_ru_8.png,images/pbg_ru_0.png,166.0,left,16,11,251,8,left,1,1.471103599993512,sahil_r,001,2020_Dec_09_1525,hue_diff,2020.2.10,59.993580686875895,
images/pbg_ru_5.png,images/pbg_ru_0.png,160.0,left,16,12,252,5,left,1,2.4993873999919742,sahil_r,001,2020_Dec_09_1525,hue_diff,2020.2.10,59.993580686875895,
images/pbg_ru_12.png,images/pbg_ru_0.png,174.0,down,16,13,253,12,down,1,1.5821520000172313,sahil_r,001,2020_Dec_09_1525,hue_diff,2020.2.10,59.993580686875895,
images/pbg_ru_9.png,images/pbg_ru_0.png,168.0,right,16,14,254,9,right,1,2.0309053000237327,sahil_r,001,2020_Dec_09_1525,hue_diff,2020.2.10,59.993580686875895,
images/pbg_ru_3.png,images/pbg_ru_0.png,156.0,down,17,0,255,3,a,0,1.8931432000244968,sahil_r,001,2020_Dec_09_1525,hue_diff,2020.2.10,59.993580686875895,
images/pbg_ru_8.png,images/pbg_ru_0.png,166.0,left,17,1,256,8,left,1,1.4553626999841072,sahil_r,001,2020_Dec_09_1525,hue_diff,2020.2.10,59.993580686875895,
images/pbg_ru_14.png,images/pbg_ru_0.png,178.0,right,17,2,257,14,right,1,1.4735402000078466,sahil_r,001,2020_Dec_09_1525,hue_diff,2020.2.10,59.993580686875895,
images/pbg_ru_13.png,images/pbg_ru_0.png,176.0,down,17,3,258,13,a,0,2.2426745999837294,sahil_r,001,2020_Dec_09_1525,hue_diff,2020.2.10,59.993580686875895,
images/pbg_ru_2.png,images/pbg_ru_0.png,154.0,right,17,4,259,2,a,0,1.6365786000096705,sahil_r,001,2020_Dec_09_1525,hue_diff,2020.2.10,59.993580686875895,
images/pbg_ru_10.png,images/pbg_ru_0.png,170.0,right,17,5,260,10,right,1,1.394533999991836,sahil_r,001,2020_Dec_09_1525,hue_diff,2020.2.10,59.993580686875895,
images/pbg_ru_7.png,images/pbg_ru_0.png,164.0,up,17,6,261,7,a,0,1.6586562000156846,sahil_r,001,2020_Dec_09_1525,hue_diff,2020.2.10,59.993580686875895,
images/pbg_ru_9.png,images/pbg_ru_0.png,168.0,right,17,7,262,9,right,1,1.3824076000018977,sahil_r,001,2020_Dec_09_1525,hue_diff,2020.2.10,59.993580686875895,
images/pbg_ru_0.png,images/pbg_ru_0.png,150.0,up,17,8,263,0,a,0,1.7297746999829542,sahil_r,001,2020_Dec_09_1525,hue_diff,2020.2.10,59.993580686875895,
images/pbg_ru_1.png,images/pbg_ru_0.png,152.0,down,17,9,264,1,a,0,1.539690299978247,sahil_r,001,2020_Dec_09_1525,hue_diff,2020.2.10,59.993580686875895,
images/pbg_ru_4.png,images/pbg_ru_0.png,158.0,left,17,10,265,4,left,1,1.6102317000040784,sahil_r,001,2020_Dec_09_1525,hue_diff,2020.2.10,59.993580686875895,
images/pbg_ru_12.png,images/pbg_ru_0.png,174.0,down,17,11,266,12,down,1,1.4419862999930046,sahil_r,001,2020_Dec_09_1525,hue_diff,2020.2.10,59.993580686875895,
images/pbg_ru_6.png,images/pbg_ru_0.png,162.0,right,17,12,267,6,a,0,2.0927063999988604,sahil_r,001,2020_Dec_09_1525,hue_diff,2020.2.10,59.993580686875895,
images/pbg_ru_5.png,images/pbg_ru_0.png,160.0,left,17,13,268,5,a,0,2.156800500000827,sahil_r,001,2020_Dec_09_1525,hue_diff,2020.2.10,59.993580686875895,
images/pbg_ru_11.png,images/pbg_ru_0.png,172.0,up,17,14,269,11,up,1,1.3821353999956045,sahil_r,001,2020_Dec_09_1525,hue_diff,2020.2.10,59.993580686875895,
images/pbg_ru_12.png,images/pbg_ru_0.png,174.0,down,18,0,270,12,down,1,1.2791471000236925,sahil_r,001,2020_Dec_09_1525,hue_diff,2020.2.10,59.993580686875895,
images/pbg_ru_10.png,images/pbg_ru_0.png,170.0,right,18,1,271,10,right,1,1.873881799983792,sahil_r,001,2020_Dec_09_1525,hue_diff,2020.2.10,59.993580686875895,
images/pbg_ru_13.png,images/pbg_ru_0.png,176.0,down,18,2,272,13,down,1,1.7701455999922473,sahil_r,001,2020_Dec_09_1525,hue_diff,2020.2.10,59.993580686875895,
images/pbg_ru_11.png,images/pbg_ru_0.png,172.0,up,18,3,273,11,up,1,1.179656199994497,sahil_r,001,2020_Dec_09_1525,hue_diff,2020.2.10,59.993580686875895,
images/pbg_ru_7.png,images/pbg_ru_0.png,164.0,up,18,4,274,7,a,0,1.8589544999995269,sahil_r,001,2020_Dec_09_1525,hue_diff,2020.2.10,59.993580686875895,
images/pbg_ru_6.png,images/pbg_ru_0.png,162.0,right,18,5,275,6,right,1,1.474825300014345,sahil_r,001,2020_Dec_09_1525,hue_diff,2020.2.10,59.993580686875895,
images/pbg_ru_4.png,images/pbg_ru_0.png,158.0,left,18,6,276,4,a,0,1.6293868999928236,sahil_r,001,2020_Dec_09_1525,hue_diff,2020.2.10,59.993580686875895,
images/pbg_ru_0.png,images/pbg_ru_0.png,150.0,up,18,7,277,0,a,0,2.092713600024581,sahil_r,001,2020_Dec_09_1525,hue_diff,2020.2.10,59.993580686875895,
images/pbg_ru_3.png,images/pbg_ru_0.png,156.0,down,18,8,278,3,a,0,2.1539531000016723,sahil_r,001,2020_Dec_09_1525,hue_diff,2020.2.10,59.993580686875895,
images/pbg_ru_9.png,images/pbg_ru_0.png,168.0,right,18,9,279,9,right,1,1.539099499990698,sahil_r,001,2020_Dec_09_1525,hue_diff,2020.2.10,59.993580686875895,
images/pbg_ru_8.png,images/pbg_ru_0.png,166.0,left,18,10,280,8,a,0,1.834239499992691,sahil_r,001,2020_Dec_09_1525,hue_diff,2020.2.10,59.993580686875895,
images/pbg_ru_14.png,images/pbg_ru_0.png,178.0,right,18,11,281,14,right,1,1.4674257000151556,sahil_r,001,2020_Dec_09_1525,hue_diff,2020.2.10,59.993580686875895,
images/pbg_ru_1.png,images/pbg_ru_0.png,152.0,down,18,12,282,1,a,0,1.6349026999960188,sahil_r,001,2020_Dec_09_1525,hue_diff,2020.2.10,59.993580686875895,
images/pbg_ru_5.png,images/pbg_ru_0.png,160.0,left,18,13,283,5,left,1,1.4721441000001505,sahil_r,001,2020_Dec_09_1525,hue_diff,2020.2.10,59.993580686875895,
images/pbg_ru_2.png,images/pbg_ru_0.png,154.0,right,18,14,284,2,a,0,2.3098777000268456,sahil_r,001,2020_Dec_09_1525,hue_diff,2020.2.10,59.993580686875895,
images/pbg_ru_7.png,images/pbg_ru_0.png,164.0,up,19,0,285,7,up,1,1.6442847000143956,sahil_r,001,2020_Dec_09_1525,hue_diff,2020.2.10,59.993580686875895,
images/pbg_ru_8.png,images/pbg_ru_0.png,166.0,left,19,1,286,8,left,1,1.421653299999889,sahil_r,001,2020_Dec_09_1525,hue_diff,2020.2.10,59.993580686875895,
images/pbg_ru_5.png,images/pbg_ru_0.png,160.0,left,19,2,287,5,left,1,1.4868982000043616,sahil_r,001,2020_Dec_09_1525,hue_diff,2020.2.10,59.993580686875895,
images/pbg_ru_0.png,images/pbg_ru_0.png,150.0,up,19,3,288,0,a,0,1.5119376000075135,sahil_r,001,2020_Dec_09_1525,hue_diff,2020.2.10,59.993580686875895,
images/pbg_ru_14.png,images/pbg_ru_0.png,178.0,right,19,4,289,14,right,1,1.4682029999967199,sahil_r,001,2020_Dec_09_1525,hue_diff,2020.2.10,59.993580686875895,
images/pbg_ru_9.png,images/pbg_ru_0.png,168.0,right,19,5,290,9,right,1,1.4600192000216339,sahil_r,001,2020_Dec_09_1525,hue_diff,2020.2.10,59.993580686875895,
images/pbg_ru_12.png,images/pbg_ru_0.png,174.0,down,19,6,291,12,down,1,1.5593056000070646,sahil_r,001,2020_Dec_09_1525,hue_diff,2020.2.10,59.993580686875895,
images/pbg_ru_2.png,images/pbg_ru_0.png,154.0,right,19,7,292,2,a,0,1.8920268999936525,sahil_r,001,2020_Dec_09_1525,hue_diff,2020.2.10,59.993580686875895,
images/pbg_ru_10.png,images/pbg_ru_0.png,170.0,right,19,8,293,10,a,0,2.061850600002799,sahil_r,001,2020_Dec_09_1525,hue_diff,2020.2.10,59.993580686875895,
images/pbg_ru_13.png,images/pbg_ru_0.png,176.0,down,19,9,294,13,down,1,1.5669360000174493,sahil_r,001,2020_Dec_09_1525,hue_diff,2020.2.10,59.993580686875895,
images/pbg_ru_11.png,images/pbg_ru_0.png,172.0,up,19,10,295,11,a,0,1.903297000011662,sahil_r,001,2020_Dec_09_1525,hue_diff,2020.2.10,59.993580686875895,
images/pbg_ru_6.png,images/pbg_ru_0.png,162.0,right,19,11,296,6,right,1,1.4377038000093307,sahil_r,001,2020_Dec_09_1525,hue_diff,2020.2.10,59.993580686875895,
images/pbg_ru_1.png,images/pbg_ru_0.png,152.0,down,19,12,297,1,a,0,1.604119499999797,sahil_r,001,2020_Dec_09_1525,hue_diff,2020.2.10,59.993580686875895,
images/pbg_ru_4.png,images/pbg_ru_0.png,158.0,left,19,13,298,4,left,1,1.4685061000054702,sahil_r,001,2020_Dec_09_1525,hue_diff,2020.2.10,59.993580686875895,
images/pbg_ru_3.png,images/pbg_ru_0.png,156.0,down,19,14,299,3,a,0,1.526706100004958,sahil_r,001,2020_Dec_09_1525,hue_diff,2020.2.10,59.993580686875895,
